epoc (ms);timestamp (+0300);elapsed (s);acc_x;acc_y;acc_z;gyr_x;gyr_y;gyr_z
1,72753E+12;2024-09-28T16.17.04.287;0.000;0.625;-0.066;0.426;-29.390;614.573;13.049
1,72753E+12;2024-09-28T16.17.04.297;0.010;0.506;-0.082;0.502;-28.476;610.976;12.317
1,72753E+12;2024-09-28T16.17.04.307;0.020;0.362;-0.095;0.581;-24.634;586.646;10.671
1,72753E+12;2024-09-28T16.17.04.317;0.030;0.216;-0.113;0.680;-19.573;538.781;7.927
1,72753E+12;2024-09-28T16.17.04.327;0.040;0.041;-0.138;0.777;-12.439;469.207;6.890
1,72753E+12;2024-09-28T16.17.04.337;0.050;-0.116;-0.156;0.872;-3.841;378.171;7.988
1,72753E+12;2024-09-28T16.17.04.347;0.060;-0.186;-0.136;0.956;5.366;284.573;5.488
1,72753E+12;2024-09-28T16.17.04.357;0.070;-0.177;-0.125;1.017;14.329;201.341;1.402
1,72753E+12;2024-09-28T16.17.04.367;0.080;-0.172;-0.117;1.047;22.134;135.549;-2.134
1,72753E+12;2024-09-28T16.17.04.377;0.090;-0.159;-0.112;1.052;29.085;90.244;-5.183
1,72753E+12;2024-09-28T16.17.04.387;0.100;-0.107;-0.093;1.024;31.037;66.646;-9.451
1,72753E+12;2024-09-28T16.17.04.397;0.110;-0.074;-0.074;0.969;26.646;61.585;-13.049
1,72753E+12;2024-09-28T16.17.04.407;0.120;-0.042;-0.054;0.938;15.793;66.159;-10.671
1,72753E+12;2024-09-28T16.17.04.417;0.130;-0.013;-0.038;0.938;4.146;67.317;-5.000
1,72753E+12;2024-09-28T16.17.04.427;0.140;-0.028;-0.022;0.980;-5.061;63.171;-2.561
1,72753E+12;2024-09-28T16.17.04.437;0.150;-0.075;-0.039;1.034;-10.061;51.890;0.610
1,72753E+12;2024-09-28T16.17.04.447;0.160;-0.113;-0.062;1.058;-9.756;36.402;3.476
1,72753E+12;2024-09-28T16.17.04.457;0.170;-0.116;-0.068;1.064;-7.744;21.159;3.232
1,72753E+12;2024-09-28T16.17.04.467;0.180;-0.093;-0.079;1.079;-4.817;7.500;0.732
1,72753E+12;2024-09-28T16.17.04.477;0.190;-0.088;-0.083;1.076;-0.915;-3.841;-2.073
1,72753E+12;2024-09-28T16.17.04.487;0.200;-0.064;-0.083;1.059;2.195;-8.902;-3.110
1,72753E+12;2024-09-28T16.17.04.497;0.210;0.002;-0.072;1.041;3.049;-6.280;-4.268
1,72753E+12;2024-09-28T16.17.04.507;0.220;0.042;-0.062;1.022;2.378;0.366;-6.159
1,72753E+12;2024-09-28T16.17.04.517;0.230;0.027;-0.062;0.991;0.427;6.159;-7.256
1,72753E+12;2024-09-28T16.17.04.527;0.240;-0.014;-0.067;0.966;-2.500;8.902;-6.463
1,72753E+12;2024-09-28T16.17.04.537;0.250;-0.042;-0.070;0.963;-5.061;7.622;-4.634
1,72753E+12;2024-09-28T16.17.04.547;0.260;-0.055;-0.075;0.976;-6.341;1.890;-3.232
1,72753E+12;2024-09-28T16.17.04.557;0.270;-0.065;-0.081;1.002;-4.939;-7.073;-2.378
1,72753E+12;2024-09-28T16.17.04.567;0.280;-0.054;-0.086;1.031;-1.585;-15.122;-2.805
1,72753E+12;2024-09-28T16.17.04.577;0.290;-0.027;-0.084;1.039;1.280;-17.073;-3.720
1,72753E+12;2024-09-28T16.17.04.587;0.300;0.001;-0.087;1.030;2.988;-13.720;-3.293
1,72753E+12;2024-09-28T16.17.04.597;0.310;0.015;-0.084;1.013;3.537;-8.902;-2.439
1,72753E+12;2024-09-28T16.17.04.607;0.320;0.020;-0.079;1.000;3.476;-5.854;-2.256
1,72753E+12;2024-09-28T16.17.04.617;0.330;0.009;-0.074;0.988;3.171;-5.793;-2.134
1,72753E+12;2024-09-28T16.17.04.627;0.340;-0.004;-0.076;0.976;2.744;-8.537;-1.768
1,72753E+12;2024-09-28T16.17.04.637;0.350;-0.009;-0.073;0.982;2.683;-10.305;-2.073
1,72753E+12;2024-09-28T16.17.04.647;0.360;-0.000;-0.067;0.993;2.439;-10.732;-1.646
1,72753E+12;2024-09-28T16.17.04.657;0.370;0.007;-0.069;1.010;2.500;-10.000;-1.159
1,72753E+12;2024-09-28T16.17.04.667;0.380;0.009;-0.072;1.016;2.927;-6.037;-1.707
1,72753E+12;2024-09-28T16.17.04.677;0.390;0.033;-0.074;1.020;2.744;-0.122;-1.646
1,72753E+12;2024-09-28T16.17.04.687;0.400;0.032;-0.074;1.025;2.683;3.841;-1.037
1,72753E+12;2024-09-28T16.17.04.697;0.410;0.005;-0.074;1.021;3.049;3.232;-0.305
1,72753E+12;2024-09-28T16.17.04.707;0.420;-0.016;-0.073;1.011;3.537;-1.585;-0.244
1,72753E+12;2024-09-28T16.17.04.717;0.430;-0.025;-0.071;1.010;4.024;-7.927;-0.122
1,72753E+12;2024-09-28T16.17.04.727;0.440;-0.029;-0.071;1.014;4.695;-13.476;0.671
1,72753E+12;2024-09-28T16.17.04.737;0.450;-0.013;-0.064;1.021;4.634;-16.220;1.220
1,72753E+12;2024-09-28T16.17.04.747;0.460;0.012;-0.058;1.025;4.024;-17.500;1.220
1,72753E+12;2024-09-28T16.17.04.757;0.470;0.003;-0.058;1.025;3.293;-21.585;1.159
1,72753E+12;2024-09-28T16.17.04.767;0.480;-0.031;-0.064;1.021;3.598;-32.012;1.829
1,72753E+12;2024-09-28T16.17.04.777;0.490;-0.067;-0.069;1.009;3.841;-51.037;3.049
1,72753E+12;2024-09-28T16.17.04.787;0.500;-0.107;-0.073;0.982;3.232;-86.768;6.341
1,72753E+12;2024-09-28T16.17.04.797;0.510;-0.200;-0.083;0.962;4.085;-152.988;13.110
1,72753E+12;2024-09-28T16.17.04.807;0.520;-0.346;-0.107;0.947;10.244;-253.598;21.220
1,72753E+12;2024-09-28T16.17.04.817;0.530;-0.417;-0.107;0.896;19.085;-369.329;24.451
1,72753E+12;2024-09-28T16.17.04.827;0.540;-0.305;-0.091;0.829;26.890;-471.890;23.902
1,72753E+12;2024-09-28T16.17.04.837;0.550;-0.044;-0.067;0.782;32.927;-534.268;19.817
1,72753E+12;2024-09-28T16.17.04.847;0.560;0.288;-0.062;0.754;35.122;-555.488;11.890
1,72753E+12;2024-09-28T16.17.04.857;0.570;0.528;-0.053;0.729;33.293;-551.463;-0.183
1,72753E+12;2024-09-28T16.17.04.867;0.580;0.585;-0.054;0.727;34.024;-536.524;-8.354
1,72753E+12;2024-09-28T16.17.04.877;0.590;0.593;-0.063;0.694;36.037;-521.890;-6.951
1,72753E+12;2024-09-28T16.17.04.887;0.600;0.643;-0.047;0.614;35.000;-514.939;-1.159
1,72753E+12;2024-09-28T16.17.04.897;0.610;0.717;-0.034;0.548;31.463;-514.451;0.671
1,72753E+12;2024-09-28T16.17.04.907;0.620;0.799;-0.002;0.486;28.171;-524.451;-2.439
1,72753E+12;2024-09-28T16.17.04.917;0.630;0.814;-0.027;0.439;28.780;-556.524;-2.195
1,72753E+12;2024-09-28T16.17.04.927;0.640;0.704;-0.022;0.348;28.232;-602.622;-3.232
1,72753E+12;2024-09-28T16.17.04.937;0.650;0.703;0.009;0.192;27.317;-651.159;-6.585
1,72753E+12;2024-09-28T16.17.04.947;0.660;0.825;0.005;0.039;25.976;-683.171;-7.561
1,72753E+12;2024-09-28T16.17.04.957;0.670;0.930;0.023;-0.120;20.610;-689.329;-9.024
1,72753E+12;2024-09-28T16.17.04.967;0.680;1.054;0.066;-0.272;11.159;-662.561;-13.171
1,72753E+12;2024-09-28T16.17.04.977;0.690;1.254;0.088;-0.380;0.793;-595.427;-17.927
1,72753E+12;2024-09-28T16.17.04.987;0.700;1.455;0.079;-0.400;-7.805;-487.378;-18.415
1,72753E+12;2024-09-28T16.17.04.997;0.710;1.556;0.065;-0.391;-15.671;-357.866;-13.537
1,72753E+12;2024-09-28T16.17.05.007;0.720;1.502;0.048;-0.383;-21.524;-223.902;-7.195
1,72753E+12;2024-09-28T16.17.05.017;0.730;1.456;0.052;-0.378;-25.976;-93.415;0.366
1,72753E+12;2024-09-28T16.17.05.027;0.740;1.444;0.039;-0.368;-29.146;25.244;9.634
1,72753E+12;2024-09-28T16.17.05.037;0.750;1.353;0.028;-0.369;-30.732;119.268;15.854
1,72753E+12;2024-09-28T16.17.05.047;0.760;1.212;0.033;-0.393;-32.439;183.902;18.293
1,72753E+12;2024-09-28T16.17.05.057;0.770;1.108;0.027;-0.402;-33.963;219.817;20.122
1,72753E+12;2024-09-28T16.17.05.067;0.780;0.984;0.002;-0.381;-32.744;217.073;22.988
1,72753E+12;2024-09-28T16.17.05.077;0.790;0.795;-0.012;-0.341;-29.573;173.720;22.927
1,72753E+12;2024-09-28T16.17.05.087;0.800;0.683;0.004;-0.292;-26.280;105.488;15.915
1,72753E+12;2024-09-28T16.17.05.097;0.810;0.723;-0.002;-0.245;-20.488;33.902;6.037
1,72753E+12;2024-09-28T16.17.05.107;0.820;0.816;-0.014;-0.215;-12.317;-21.159;-1.402
1,72753E+12;2024-09-28T16.17.05.117;0.830;0.922;-0.023;-0.210;-3.659;-52.744;-7.866
1,72753E+12;2024-09-28T16.17.05.127;0.840;0.985;-0.025;-0.217;3.780;-66.280;-10.366
1,72753E+12;2024-09-28T16.17.05.137;0.850;0.986;-0.026;-0.245;9.329;-73.598;-8.720
1,72753E+12;2024-09-28T16.17.05.147;0.860;0.955;-0.003;-0.274;11.098;-79.878;-6.402
1,72753E+12;2024-09-28T16.17.05.157;0.870;0.953;0.013;-0.297;9.634;-81.402;-5.061
1,72753E+12;2024-09-28T16.17.05.167;0.880;1.010;0.022;-0.313;6.707;-71.402;-3.537
1,72753E+12;2024-09-28T16.17.05.177;0.890;1.065;0.025;-0.325;2.561;-49.817;-0.671
1,72753E+12;2024-09-28T16.17.05.187;0.900;1.077;0.020;-0.328;-1.646;-22.805;2.012
1,72753E+12;2024-09-28T16.17.05.197;0.910;1.067;0.007;-0.312;-4.451;0.610;4.268
1,72753E+12;2024-09-28T16.17.05.207;0.920;1.019;-0.002;-0.296;-5.366;13.720;5.427
1,72753E+12;2024-09-28T16.17.05.217;0.930;0.970;0.002;-0.284;-4.756;17.134;4.451
1,72753E+12;2024-09-28T16.17.05.227;0.940;0.958;-0.001;-0.272;-2.683;14.085;3.171
1,72753E+12;2024-09-28T16.17.05.237;0.950;0.948;-0.004;-0.263;0.061;5.427;2.378
1,72753E+12;2024-09-28T16.17.05.247;0.960;0.931;0.001;-0.264;2.744;-4.817;0.305
1,72753E+12;2024-09-28T16.17.05.257;0.970;0.951;0.004;-0.269;4.390;-9.573;-2.012
1,72753E+12;2024-09-28T16.17.05.267;0.980;0.991;0.008;-0.280;3.720;-5.244;-2.744
1,72753E+12;2024-09-28T16.17.05.277;0.990;1.034;0.015;-0.292;1.524;6.829;-2.988
1,72753E+12;2024-09-28T16.17.05.287;1.000;1.047;0.015;-0.292;-1.463;25.915;-2.927
1,72753E+12;2024-09-28T16.17.05.297;1.010;1.064;0.022;-0.291;-4.390;52.988;-1.098
1,72753E+12;2024-09-28T16.17.05.307;1.020;1.125;0.026;-0.276;-6.402;87.744;1.341
1,72753E+12;2024-09-28T16.17.05.317;1.030;1.166;0.019;-0.259;-7.866;128.354;3.841
1,72753E+12;2024-09-28T16.17.05.327;1.040;1.182;0.018;-0.247;-8.780;170.061;6.707
1,72753E+12;2024-09-28T16.17.05.337;1.050;1.180;0.023;-0.233;-10.061;211.280;9.878
1,72753E+12;2024-09-28T16.17.05.347;1.060;1.171;0.024;-0.217;-12.683;253.171;13.659
1,72753E+12;2024-09-28T16.17.05.357;1.070;1.199;0.037;-0.196;-16.646;300.854;16.524
1,72753E+12;2024-09-28T16.17.05.367;1.080;1.274;0.059;-0.172;-22.012;363.049;17.805
1,72753E+12;2024-09-28T16.17.05.377;1.090;1.376;0.061;-0.130;-27.134;441.707;20.061
1,72753E+12;2024-09-28T16.17.05.387;1.100;1.424;0.033;-0.064;-31.098;526.951;26.402
1,72753E+12;2024-09-28T16.17.05.397;1.110;1.364;0.025;-0.037;-35.610;605.915;34.390
1,72753E+12;2024-09-28T16.17.05.407;1.120;1.256;0.042;-0.020;-42.439;670.549;40.793
1,72753E+12;2024-09-28T16.17.05.417;1.130;1.160;0.045;0.021;-49.695;718.537;43.780
1,72753E+12;2024-09-28T16.17.05.427;1.140;1.064;0.027;0.080;-55.000;752.012;41.280
1,72753E+12;2024-09-28T16.17.05.437;1.150;0.915;-0.002;0.156;-57.195;772.866;39.085
1,72753E+12;2024-09-28T16.17.05.447;1.160;0.731;-0.063;0.280;-50.976;775.305;40.366
1,72753E+12;2024-09-28T16.17.05.457;1.170;0.537;-0.104;0.399;-42.073;750.122;42.134
1,72753E+12;2024-09-28T16.17.05.467;1.180;0.326;-0.117;0.509;-32.012;692.195;39.817
1,72753E+12;2024-09-28T16.17.05.477;1.190;0.110;-0.137;0.629;-21.402;600.000;32.927
1,72753E+12;2024-09-28T16.17.05.487;1.200;-0.071;-0.171;0.749;-9.390;476.829;26.707
1,72753E+12;2024-09-28T16.17.05.497;1.210;-0.216;-0.174;0.868;4.146;340.427;17.744
1,72753E+12;2024-09-28T16.17.05.507;1.220;-0.237;-0.140;0.964;17.378;214.878;6.524
1,72753E+12;2024-09-28T16.17.05.517;1.230;-0.165;-0.130;1.000;28.476;121.280;-4.146
1,72753E+12;2024-09-28T16.17.05.527;1.240;-0.074;-0.112;1.000;34.268;70.000;-12.683
1,72753E+12;2024-09-28T16.17.05.537;1.250;0.014;-0.084;0.968;31.098;58.110;-15.488
1,72753E+12;2024-09-28T16.17.05.547;1.260;0.089;-0.066;0.943;21.341;68.293;-10.610
1,72753E+12;2024-09-28T16.17.05.557;1.270;0.143;-0.058;0.966;11.829;83.354;-4.695
1,72753E+12;2024-09-28T16.17.05.567;1.280;0.125;-0.052;0.990;3.902;92.378;-3.598
1,72753E+12;2024-09-28T16.17.05.577;1.290;0.024;-0.060;1.001;-1.768;88.171;-1.402
1,72753E+12;2024-09-28T16.17.05.587;1.300;-0.082;-0.073;0.999;-4.573;71.646;2.500
1,72753E+12;2024-09-28T16.17.05.597;1.310;-0.123;-0.080;1.004;-5.488;49.451;4.939
1,72753E+12;2024-09-28T16.17.05.607;1.320;-0.111;-0.079;1.021;-4.695;29.634;4.939
1,72753E+12;2024-09-28T16.17.05.617;1.330;-0.068;-0.078;1.043;-3.537;18.415;3.049
1,72753E+12;2024-09-28T16.17.05.627;1.340;-0.012;-0.077;1.056;-2.256;15.061;1.220
1,72753E+12;2024-09-28T16.17.05.637;1.350;0.011;-0.080;1.062;-0.976;17.866;-1.341
1,72753E+12;2024-09-28T16.17.05.647;1.360;0.001;-0.075;1.051;-0.305;22.866;-3.232
1,72753E+12;2024-09-28T16.17.05.657;1.370;-0.009;-0.072;1.029;0.427;25.244;-3.232
1,72753E+12;2024-09-28T16.17.05.667;1.380;-0.029;-0.070;1.002;0.915;23.720;-3.476
1,72753E+12;2024-09-28T16.17.05.677;1.390;-0.078;-0.074;0.977;0.610;19.390;-3.354
1,72753E+12;2024-09-28T16.17.05.687;1.400;-0.102;-0.077;0.958;-0.671;11.768;-1.037
1,72753E+12;2024-09-28T16.17.05.697;1.410;-0.095;-0.077;0.964;-1.463;2.195;0.915
1,72753E+12;2024-09-28T16.17.05.707;1.420;-0.079;-0.082;0.986;-1.098;-8.780;1.159
1,72753E+12;2024-09-28T16.17.05.717;1.430;-0.074;-0.088;1.005;0.915;-19.085;0.732
1,72753E+12;2024-09-28T16.17.05.727;1.440;-0.057;-0.090;1.010;3.537;-23.354;0.000
1,72753E+12;2024-09-28T16.17.05.737;1.450;0.000;-0.080;1.011;4.695;-15.183;-1.402
1,72753E+12;2024-09-28T16.17.05.747;1.460;0.068;-0.070;1.006;2.622;0.183;-2.622
1,72753E+12;2024-09-28T16.17.05.757;1.470;0.067;-0.064;0.998;-0.183;11.951;-2.927
1,72753E+12;2024-09-28T16.17.05.767;1.480;-0.002;-0.075;0.990;-1.524;12.744;-2.439
1,72753E+12;2024-09-28T16.17.05.777;1.490;-0.065;-0.083;0.990;-1.159;3.293;-1.220
1,72753E+12;2024-09-28T16.17.05.787;1.500;-0.085;-0.087;1.001;0.671;-8.354;-0.427
1,72753E+12;2024-09-28T16.17.05.797;1.510;-0.056;-0.084;1.007;2.500;-14.207;-0.305
1,72753E+12;2024-09-28T16.17.05.807;1.520;-0.004;-0.082;1.015;3.476;-13.049;-0.854
1,72753E+12;2024-09-28T16.17.05.817;1.530;0.019;-0.081;1.017;3.841;-10.671;-1.707
1,72753E+12;2024-09-28T16.17.05.827;1.540;-0.000;-0.082;1.014;4.573;-9.207;-2.134
1,72753E+12;2024-09-28T16.17.05.837;1.550;-0.001;-0.079;1.007;5.061;-6.646;-2.317
1,72753E+12;2024-09-28T16.17.05.847;1.560;0.017;-0.075;1.006;4.329;-1.646;-2.012
1,72753E+12;2024-09-28T16.17.05.857;1.570;0.026;-0.072;1.005;2.927;4.024;-1.707
1,72753E+12;2024-09-28T16.17.05.867;1.580;0.019;-0.070;1.004;1.707;7.195;-1.768
1,72753E+12;2024-09-28T16.17.05.877;1.590;0.000;-0.073;1.008;1.280;5.061;-1.646
1,72753E+12;2024-09-28T16.17.05.887;1.600;-0.031;-0.077;1.020;2.073;-2.805;-0.854
1,72753E+12;2024-09-28T16.17.05.897;1.610;-0.056;-0.079;1.027;3.902;-13.720;-0.122
1,72753E+12;2024-09-28T16.17.05.907;1.620;-0.041;-0.078;1.030;5.122;-22.744;0.061
1,72753E+12;2024-09-28T16.17.05.917;1.630;-0.020;-0.074;1.027;5.915;-29.512;-0.061
1,72753E+12;2024-09-28T16.17.05.927;1.640;-0.032;-0.070;1.017;6.524;-38.841;0.305
1,72753E+12;2024-09-28T16.17.05.937;1.650;-0.058;-0.074;1.004;7.256;-53.598;1.280
1,72753E+12;2024-09-28T16.17.05.947;1.660;-0.066;-0.076;0.990;8.171;-74.817;1.402
1,72753E+12;2024-09-28T16.17.05.957;1.670;-0.083;-0.075;0.979;9.451;-104.024;1.768
1,72753E+12;2024-09-28T16.17.05.967;1.680;-0.094;-0.077;0.968;11.098;-141.280;2.195
1,72753E+12;2024-09-28T16.17.05.977;1.690;-0.064;-0.073;0.951;12.195;-183.963;0.732
1,72753E+12;2024-09-28T16.17.05.987;1.700;-0.010;-0.064;0.931;12.805;-229.878;-2.073
1,72753E+12;2024-09-28T16.17.05.997;1.710;0.014;-0.060;0.929;14.024;-278.476;-4.451
1,72753E+12;2024-09-28T16.17.06.007;1.720;0.000;-0.062;0.900;16.159;-335.854;-5.366
1,72753E+12;2024-09-28T16.17.06.017;1.730;-0.026;-0.066;0.858;19.207;-399.024;-3.537
1,72753E+12;2024-09-28T16.17.06.027;1.740;0.050;-0.070;0.813;22.439;-464.085;-2.195
1,72753E+12;2024-09-28T16.17.06.037;1.750;0.189;-0.080;0.764;25.854;-531.951;-4.207
1,72753E+12;2024-09-28T16.17.06.047;1.760;0.239;-0.072;0.737;30.427;-592.622;-10.427
1,72753E+12;2024-09-28T16.17.06.057;1.770;0.361;-0.060;0.685;37.134;-648.293;-14.634
1,72753E+12;2024-09-28T16.17.06.067;1.780;0.520;-0.067;0.608;46.829;-695.854;-21.098
1,72753E+12;2024-09-28T16.17.06.077;1.790;0.620;-0.057;0.505;55.976;-733.415;-33.049
1,72753E+12;2024-09-28T16.17.06.087;1.800;0.682;-0.045;0.367;62.805;-761.890;-40.671
1,72753E+12;2024-09-28T16.17.06.097;1.810;0.742;-0.028;0.225;67.439;-776.402;-42.805
1,72753E+12;2024-09-28T16.17.06.107;1.820;0.867;0.027;0.066;67.866;-767.317;-43.232
1,72753E+12;2024-09-28T16.17.06.117;1.830;1.032;0.071;-0.109;64.878;-733.841;-43.354
1,72753E+12;2024-09-28T16.17.06.127;1.840;1.157;0.093;-0.227;59.390;-684.878;-39.512
1,72753E+12;2024-09-28T16.17.06.137;1.850;1.195;0.124;-0.323;50.183;-627.073;-33.659
1,72753E+12;2024-09-28T16.17.06.147;1.860;1.191;0.136;-0.415;39.146;-556.646;-28.963
1,72753E+12;2024-09-28T16.17.06.157;1.870;1.280;0.147;-0.463;26.768;-465.244;-22.988
1,72753E+12;2024-09-28T16.17.06.167;1.880;1.383;0.130;-0.467;15.122;-368.049;-10.549
1,72753E+12;2024-09-28T16.17.06.177;1.890;1.285;0.118;-0.470;1.768;-280.549;-0.610
1,72753E+12;2024-09-28T16.17.06.187;1.900;1.196;0.115;-0.481;-9.634;-205.122;1.524
1,72753E+12;2024-09-28T16.17.06.197;1.910;1.196;0.100;-0.478;-16.037;-137.805;2.012
1,72753E+12;2024-09-28T16.17.06.207;1.920;1.150;0.077;-0.478;-18.780;-83.415;2.744
1,72753E+12;2024-09-28T16.17.06.217;1.930;1.032;0.056;-0.491;-17.927;-55.122;4.939
1,72753E+12;2024-09-28T16.17.06.227;1.940;0.859;0.044;-0.491;-16.707;-58.780;8.110
1,72753E+12;2024-09-28T16.17.06.237;1.950;0.752;0.050;-0.509;-15.610;-78.171;5.366
1,72753E+12;2024-09-28T16.17.06.247;1.960;0.799;0.057;-0.540;-14.085;-91.341;0.732
1,72753E+12;2024-09-28T16.17.06.257;1.970;0.893;0.063;-0.556;-12.073;-84.085;-2.317
1,72753E+12;2024-09-28T16.17.06.267;1.980;0.970;0.056;-0.565;-10.244;-61.037;-2.378
1,72753E+12;2024-09-28T16.17.06.277;1.990;1.008;0.063;-0.585;-9.451;-30.305;-1.037
1,72753E+12;2024-09-28T16.17.06.287;2.000;1.021;0.074;-0.608;-10.000;3.171;1.280
1,72753E+12;2024-09-28T16.17.06.297;2.010;1.021;0.082;-0.619;-10.732;36.585;5.122
1,72753E+12;2024-09-28T16.17.06.307;2.020;1.012;0.079;-0.624;-10.793;66.768;9.878
1,72753E+12;2024-09-28T16.17.06.317;2.030;0.984;0.068;-0.612;-9.268;85.671;14.756
1,72753E+12;2024-09-28T16.17.06.327;2.040;0.900;0.055;-0.591;-6.890;81.768;18.780
1,72753E+12;2024-09-28T16.17.06.337;2.050;0.784;0.060;-0.579;-4.817;58.537;17.439
1,72753E+12;2024-09-28T16.17.06.347;2.060;0.774;0.058;-0.551;-2.012;26.402;12.561
1,72753E+12;2024-09-28T16.17.06.357;2.070;0.786;0.046;-0.521;1.585;-0.915;6.280
1,72753E+12;2024-09-28T16.17.06.367;2.080;0.817;0.038;-0.511;5.427;-16.585;0.610
1,72753E+12;2024-09-28T16.17.06.377;2.090;0.863;0.040;-0.519;8.049;-17.317;-2.561
1,72753E+12;2024-09-28T16.17.06.387;2.100;0.896;0.046;-0.523;9.024;-7.378;-1.829
1,72753E+12;2024-09-28T16.17.06.397;2.110;0.913;0.057;-0.533;8.293;9.390;0.000
1,72753E+12;2024-09-28T16.17.06.407;2.120;0.943;0.073;-0.552;5.427;36.280;1.402
1,72753E+12;2024-09-28T16.17.06.417;2.130;1.008;0.077;-0.552;2.134;75.793;4.451
1,72753E+12;2024-09-28T16.17.06.427;2.140;1.063;0.069;-0.542;-0.854;125.732;8.902
1,72753E+12;2024-09-28T16.17.06.437;2.150;1.092;0.061;-0.533;-3.415;178.110;14.268
1,72753E+12;2024-09-28T16.17.06.447;2.160;1.092;0.057;-0.516;-5.793;225.549;20.488
1,72753E+12;2024-09-28T16.17.06.457;2.170;1.081;0.054;-0.487;-7.622;265.000;25.549
1,72753E+12;2024-09-28T16.17.06.467;2.180;1.078;0.051;-0.455;-8.963;299.634;28.415
1,72753E+12;2024-09-28T16.17.06.477;2.190;1.111;0.059;-0.418;-9.878;337.683;30.366
1,72753E+12;2024-09-28T16.17.06.487;2.200;1.187;0.065;-0.376;-10.427;387.195;32.012
1,72753E+12;2024-09-28T16.17.06.497;2.210;1.275;0.062;-0.328;-10.549;449.817;35.549
1,72753E+12;2024-09-28T16.17.06.507;2.220;1.337;0.066;-0.280;-11.829;524.756;41.037
1,72753E+12;2024-09-28T16.17.06.517;2.230;1.374;0.068;-0.238;-15.488;603.841;48.720
1,72753E+12;2024-09-28T16.17.06.527;2.240;1.344;0.070;-0.217;-20.488;674.939;55.793
1,72753E+12;2024-09-28T16.17.06.537;2.250;1.220;0.067;-0.167;-27.927;723.537;61.280
1,72753E+12;2024-09-28T16.17.06.547;2.260;1.038;0.067;-0.108;-35.610;735.061;64.146
1,72753E+12;2024-09-28T16.17.06.557;2.270;0.833;0.050;0.000;-40.915;713.720;63.293
1,72753E+12;2024-09-28T16.17.06.567;2.280;0.653;0.018;0.158;-42.439;671.402;58.841
1,72753E+12;2024-09-28T16.17.06.577;2.290;0.529;-0.020;0.331;-39.268;625.793;54.390
1,72753E+12;2024-09-28T16.17.06.587;2.300;0.558;-0.058;0.493;-32.378;589.024;55.122
1,72753E+12;2024-09-28T16.17.06.597;2.310;0.603;-0.083;0.599;-22.561;554.024;50.366
1,72753E+12;2024-09-28T16.17.06.607;2.320;0.535;-0.098;0.663;-14.756;509.024;38.963
1,72753E+12;2024-09-28T16.17.06.617;2.330;0.329;-0.130;0.715;-9.512;443.049;29.085
1,72753E+12;2024-09-28T16.17.06.627;2.340;0.084;-0.135;0.750;-5.183;360.976;23.963
1,72753E+12;2024-09-28T16.17.06.637;2.350;-0.019;-0.130;0.797;-2.500;277.134;23.293
1,72753E+12;2024-09-28T16.17.06.647;2.360;-0.000;-0.124;0.870;-0.854;205.854;20.671
1,72753E+12;2024-09-28T16.17.06.657;2.370;0.044;-0.104;0.939;-1.280;152.744;15.488
1,72753E+12;2024-09-28T16.17.06.667;2.380;0.072;-0.109;0.981;-0.061;114.512;12.805
1,72753E+12;2024-09-28T16.17.06.677;2.390;0.085;-0.115;1.004;2.012;94.085;10.732
1,72753E+12;2024-09-28T16.17.06.687;2.400;0.135;-0.110;1.007;1.159;86.037;9.573
1,72753E+12;2024-09-28T16.17.06.697;2.410;0.145;-0.111;1.013;0.915;81.768;8.110
1,72753E+12;2024-09-28T16.17.06.707;2.420;0.100;-0.112;1.011;1.768;74.695;5.854
1,72753E+12;2024-09-28T16.17.06.717;2.430;0.041;-0.113;1.004;2.805;58.110;6.037
1,72753E+12;2024-09-28T16.17.06.727;2.440;-0.022;-0.111;0.998;4.817;32.927;5.976
1,72753E+12;2024-09-28T16.17.06.737;2.450;-0.068;-0.105;0.990;6.707;2.439;6.098
1,72753E+12;2024-09-28T16.17.06.747;2.460;-0.065;-0.100;0.997;9.573;-23.780;5.793
1,72753E+12;2024-09-28T16.17.06.757;2.470;0.011;-0.090;1.009;11.768;-30.732;2.744
1,72753E+12;2024-09-28T16.17.06.767;2.480;0.141;-0.074;1.018;10.366;-13.354;-1.402
1,72753E+12;2024-09-28T16.17.06.777;2.490;0.209;-0.062;1.009;5.000;11.829;-3.049
1,72753E+12;2024-09-28T16.17.06.787;2.500;0.167;-0.074;1.001;0.122;30.183;-2.988
1,72753E+12;2024-09-28T16.17.06.797;2.510;0.096;-0.083;0.988;-2.988;33.232;-2.866
1,72753E+12;2024-09-28T16.17.06.807;2.520;0.044;-0.087;0.994;-4.085;21.098;-2.927
1,72753E+12;2024-09-28T16.17.06.817;2.530;0.001;-0.095;1.004;-2.805;-0.976;-4.146
1,72753E+12;2024-09-28T16.17.06.827;2.540;-0.027;-0.107;1.015;0.122;-28.293;-4.512
1,72753E+12;2024-09-28T16.17.06.837;2.550;-0.029;-0.116;1.014;4.817;-54.207;-5.122
1,72753E+12;2024-09-28T16.17.06.847;2.560;0.031;-0.112;1.011;9.756;-62.988;-7.988
1,72753E+12;2024-09-28T16.17.06.857;2.570;0.172;-0.093;1.006;10.488;-46.524;-10.305
1,72753E+12;2024-09-28T16.17.06.867;2.580;0.292;-0.070;0.993;6.341;-18.049;-11.524
1,72753E+12;2024-09-28T16.17.06.877;2.590;0.273;-0.074;0.986;0.976;5.976;-11.951
1,72753E+12;2024-09-28T16.17.06.887;2.600;0.196;-0.083;0.982;-1.951;14.512;-9.756
1,72753E+12;2024-09-28T16.17.06.897;2.610;0.149;-0.088;0.985;-2.134;7.866;-7.805
1,72753E+12;2024-09-28T16.17.06.907;2.620;0.121;-0.091;0.996;-0.793;-6.585;-7.866
1,72753E+12;2024-09-28T16.17.06.917;2.630;0.109;-0.095;1.003;1.524;-23.902;-7.927
1,72753E+12;2024-09-28T16.17.06.927;2.640;0.118;-0.096;1.009;4.756;-42.195;-7.561
1,72753E+12;2024-09-28T16.17.06.937;2.650;0.128;-0.093;1.008;8.476;-55.610;-8.110
1,72753E+12;2024-09-28T16.17.06.947;2.660;0.182;-0.085;1.008;11.098;-53.476;-8.598
1,72753E+12;2024-09-28T16.17.06.957;2.670;0.286;-0.066;1.004;9.817;-32.988;-8.902
1,72753E+12;2024-09-28T16.17.06.967;2.680;0.370;-0.053;0.995;4.817;-4.268;-9.329
1,72753E+12;2024-09-28T16.17.06.977;2.690;0.352;-0.058;0.992;-0.854;17.866;-8.963
1,72753E+12;2024-09-28T16.17.06.987;2.700;0.259;-0.073;0.996;-3.598;24.695;-6.341
1,72753E+12;2024-09-28T16.17.06.997;2.710;0.191;-0.084;1.001;-3.720;16.646;-3.537
1,72753E+12;2024-09-28T16.17.07.007;2.720;0.171;-0.091;1.018;-2.317;2.561;-3.293
1,72753E+12;2024-09-28T16.17.07.017;2.730;0.168;-0.093;1.030;-0.122;-10.671;-3.476
1,72753E+12;2024-09-28T16.17.07.027;2.740;0.179;-0.094;1.032;2.439;-21.829;-3.415
1,72753E+12;2024-09-28T16.17.07.037;2.750;0.185;-0.094;1.031;5.427;-27.805;-3.659
1,72753E+12;2024-09-28T16.17.07.047;2.760;0.222;-0.082;1.014;5.854;-23.354;-3.963
1,72753E+12;2024-09-28T16.17.07.057;2.770;0.285;-0.064;0.999;3.415;-11.098;-2.744
1,72753E+12;2024-09-28T16.17.07.067;2.780;0.294;-0.059;0.985;0.549;-0.061;-2.134
1,72753E+12;2024-09-28T16.17.07.077;2.790;0.247;-0.060;0.978;-1.280;5.000;-1.280
1,72753E+12;2024-09-28T16.17.07.087;2.800;0.208;-0.065;0.979;-2.195;3.720;0.915
1,72753E+12;2024-09-28T16.17.07.097;2.810;0.198;-0.069;0.988;-1.646;-1.768;2.073
1,72753E+12;2024-09-28T16.17.07.107;2.820;0.188;-0.073;1.000;-0.610;-9.878;0.976
1,72753E+12;2024-09-28T16.17.07.117;2.830;0.161;-0.077;1.000;0.854;-23.841;0.671
1,72753E+12;2024-09-28T16.17.07.127;2.840;0.118;-0.081;0.999;2.561;-49.024;0.976
1,72753E+12;2024-09-28T16.17.07.137;2.850;0.060;-0.089;0.990;4.634;-91.646;1.768
1,72753E+12;2024-09-28T16.17.07.147;2.860;-0.016;-0.099;0.983;8.476;-151.524;2.561
1,72753E+12;2024-09-28T16.17.07.157;2.870;-0.050;-0.099;0.966;12.744;-223.841;2.622
1,72753E+12;2024-09-28T16.17.07.167;2.880;-0.036;-0.091;0.940;16.707;-302.744;3.110
1,72753E+12;2024-09-28T16.17.07.177;2.890;0.019;-0.089;0.888;19.573;-379.390;1.037
1,72753E+12;2024-09-28T16.17.07.187;2.900;0.103;-0.084;0.818;20.732;-442.866;-4.207
1,72753E+12;2024-09-28T16.17.07.197;2.910;0.213;-0.089;0.765;19.878;-492.256;-6.220
1,72753E+12;2024-09-28T16.17.07.207;2.920;0.326;-0.077;0.717;18.841;-532.927;-9.573
1,72753E+12;2024-09-28T16.17.07.217;2.930;0.421;-0.083;0.672;22.378;-579.512;-13.720
1,72753E+12;2024-09-28T16.17.07.227;2.940;0.436;-0.105;0.598;28.963;-640.305;-19.024
1,72753E+12;2024-09-28T16.17.07.237;2.950;0.438;-0.063;0.465;32.988;-713.476;-26.768
1,72753E+12;2024-09-28T16.17.07.247;2.960;0.507;-0.028;0.289;35.061;-786.646;-34.512
1,72753E+12;2024-09-28T16.17.07.257;2.970;0.629;0.011;0.083;33.049;-837.805;-42.134
1,72753E+12;2024-09-28T16.17.07.267;2.980;0.820;0.052;-0.108;29.573;-847.805;-47.744
1,72753E+12;2024-09-28T16.17.07.277;2.990;1.051;0.042;-0.248;27.683;-818.841;-46.402
1,72753E+12;2024-09-28T16.17.07.287;3.000;1.180;0.081;-0.367;19.817;-745.915;-44.024
1,72753E+12;2024-09-28T16.17.07.297;3.010;1.353;0.128;-0.480;11.402;-625.915;-39.573
1,72753E+12;2024-09-28T16.17.07.307;3.020;1.596;0.094;-0.485;5.061;-475.183;-27.622
1,72753E+12;2024-09-28T16.17.07.317;3.030;1.581;0.037;-0.437;1.707;-349.024;-8.598
1,72753E+12;2024-09-28T16.17.07.327;3.040;1.198;0.023;-0.451;-1.951;-289.939;8.780
1,72753E+12;2024-09-28T16.17.07.337;3.050;0.818;0.053;-0.529;-7.134;-288.902;15.488
1,72753E+12;2024-09-28T16.17.07.347;3.060;0.754;0.075;-0.579;-13.232;-309.146;11.220
1,72753E+12;2024-09-28T16.17.07.357;3.070;0.852;0.064;-0.596;-17.317;-305.427;-1.707
1,72753E+12;2024-09-28T16.17.07.367;3.080;0.995;0.019;-0.606;-18.171;-267.439;-14.085
1,72753E+12;2024-09-28T16.17.07.377;3.090;1.064;0.005;-0.626;-17.805;-202.500;-19.939
1,72753E+12;2024-09-28T16.17.07.387;3.100;1.043;-0.003;-0.673;-16.585;-131.341;-18.171
1,72753E+12;2024-09-28T16.17.07.397;3.110;0.989;0.008;-0.717;-15.854;-75.549;-11.341
1,72753E+12;2024-09-28T16.17.07.407;3.120;0.874;0.017;-0.741;-15.000;-49.878;-2.866
1,72753E+12;2024-09-28T16.17.07.417;3.130;0.730;0.024;-0.757;-15.366;-51.768;2.988
1,72753E+12;2024-09-28T16.17.07.427;3.140;0.685;0.046;-0.769;-15.915;-62.744;4.146
1,72753E+12;2024-09-28T16.17.07.437;3.150;0.752;0.052;-0.764;-16.098;-64.756;2.378
1,72753E+12;2024-09-28T16.17.07.447;3.160;0.806;0.034;-0.750;-15.244;-53.780;0.549
1,72753E+12;2024-09-28T16.17.07.457;3.170;0.817;0.022;-0.758;-13.415;-33.293;-1.037
1,72753E+12;2024-09-28T16.17.07.467;3.180;0.847;0.028;-0.784;-11.768;-5.488;-1.463
1,72753E+12;2024-09-28T16.17.07.477;3.190;0.884;0.032;-0.803;-9.512;23.110;0.671
1,72753E+12;2024-09-28T16.17.07.487;3.200;0.841;0.029;-0.797;-6.220;38.171;5.061
1,72753E+12;2024-09-28T16.17.07.497;3.210;0.729;0.033;-0.783;-3.415;36.585;7.317
1,72753E+12;2024-09-28T16.17.07.507;3.220;0.699;0.040;-0.761;-0.244;25.610;6.280
1,72753E+12;2024-09-28T16.17.07.517;3.230;0.712;0.033;-0.735;3.354;9.939;4.451
1,72753E+12;2024-09-28T16.17.07.527;3.240;0.677;0.031;-0.720;6.098;-7.622;1.707
1,72753E+12;2024-09-28T16.17.07.537;3.250;0.664;0.033;-0.708;7.561;-21.890;-1.220
1,72753E+12;2024-09-28T16.17.07.547;3.260;0.708;0.034;-0.704;8.598;-26.280;-3.720
1,72753E+12;2024-09-28T16.17.07.557;3.270;0.757;0.034;-0.705;9.146;-19.024;-4.756
1,72753E+12;2024-09-28T16.17.07.567;3.280;0.780;0.037;-0.703;9.024;-3.232;-4.390
1,72753E+12;2024-09-28T16.17.07.577;3.290;0.790;0.036;-0.698;8.232;16.585;-3.049
1,72753E+12;2024-09-28T16.17.07.587;3.300;0.794;0.043;-0.699;6.951;37.012;-1.402
1,72753E+12;2024-09-28T16.17.07.597;3.310;0.793;0.048;-0.698;5.183;53.232;0.549
1,72753E+12;2024-09-28T16.17.07.607;3.320;0.779;0.054;-0.694;3.232;64.878;1.524
1,72753E+12;2024-09-28T16.17.07.617;3.330;0.785;0.052;-0.684;2.012;73.415;2.073
1,72753E+12;2024-09-28T16.17.07.627;3.340;0.808;0.045;-0.670;1.098;85.549;1.829
1,72753E+12;2024-09-28T16.17.07.637;3.350;0.859;0.046;-0.667;0.610;106.890;1.463
1,72753E+12;2024-09-28T16.17.07.647;3.360;0.930;0.046;-0.656;0.122;139.939;2.439
1,72753E+12;2024-09-28T16.17.07.657;3.370;1.004;0.047;-0.657;-1.341;188.415;4.146
1,72753E+12;2024-09-28T16.17.07.667;3.380;1.099;0.058;-0.661;-3.659;252.378;7.622
1,72753E+12;2024-09-28T16.17.07.677;3.390;1.202;0.059;-0.638;-5.976;329.817;13.232
1,72753E+12;2024-09-28T16.17.07.687;3.400;1.270;0.046;-0.609;-8.354;412.195;21.037
1,72753E+12;2024-09-28T16.17.07.697;3.410;1.282;0.049;-0.579;-10.488;487.317;30.488
1,72753E+12;2024-09-28T16.17.07.707;3.420;1.253;0.045;-0.530;-12.561;545.854;38.780
1,72753E+12;2024-09-28T16.17.07.717;3.430;1.188;0.044;-0.464;-15.305;588.110;42.866
1,72753E+12;2024-09-28T16.17.07.727;3.440;1.157;0.068;-0.391;-20.854;620.366;42.256
1,72753E+12;2024-09-28T16.17.07.737;3.450;1.204;0.071;-0.310;-26.829;643.781;38.963
1,72753E+12;2024-09-28T16.17.07.747;3.460;1.197;0.066;-0.263;-31.220;655.427;29.878
1,72753E+12;2024-09-28T16.17.07.757;3.470;1.026;0.057;-0.238;-36.098;650.610;19.573
1,72753E+12;2024-09-28T16.17.07.767;3.480;0.811;0.042;-0.170;-44.512;630.610;15.488
1,72753E+12;2024-09-28T16.17.07.777;3.490;0.687;0.021;-0.049;-52.073;599.512;17.317
1,72753E+12;2024-09-28T16.17.07.787;3.500;0.595;-0.003;0.106;-56.829;568.232;20.183
1,72753E+12;2024-09-28T16.17.07.797;3.510;0.598;0.001;0.267;-57.744;549.573;19.390
1,72753E+12;2024-09-28T16.17.07.807;3.520;0.699;-0.038;0.400;-51.829;544.634;19.512
1,72753E+12;2024-09-28T16.17.07.817;3.530;0.701;-0.082;0.510;-40.976;544.878;22.073
1,72753E+12;2024-09-28T16.17.07.827;3.540;0.595;-0.110;0.579;-27.500;533.354;23.780
1,72753E+12;2024-09-28T16.17.07.837;3.550;0.458;-0.109;0.649;-15.305;504.573;22.012
1,72753E+12;2024-09-28T16.17.07.847;3.560;0.350;-0.115;0.711;-4.695;461.707;17.439
1,72753E+12;2024-09-28T16.17.07.857;3.570;0.248;-0.123;0.775;3.171;405.854;13.659
1,72753E+12;2024-09-28T16.17.07.867;3.580;0.126;-0.120;0.834;8.354;346.159;11.341
1,72753E+12;2024-09-28T16.17.07.877;3.590;0.064;-0.099;0.873;7.805;290.244;11.280
1,72753E+12;2024-09-28T16.17.07.887;3.600;0.095;-0.073;0.918;4.207;240.549;8.537
1,72753E+12;2024-09-28T16.17.07.897;3.610;0.079;-0.073;0.972;2.683;194.634;1.646
1,72753E+12;2024-09-28T16.17.07.907;3.620;-0.001;-0.074;1.017;3.171;153.049;-3.110
1,72753E+12;2024-09-28T16.17.07.917;3.630;-0.028;-0.076;1.049;2.927;120.427;-2.744
1,72753E+12;2024-09-28T16.17.07.927;3.640;0.019;-0.072;1.081;2.317;99.817;-1.402
1,72753E+12;2024-09-28T16.17.07.937;3.650;0.067;-0.065;1.103;2.012;88.293;-2.195
1,72753E+12;2024-09-28T16.17.07.947;3.660;0.044;-0.071;1.109;2.317;77.744;-1.951
1,72753E+12;2024-09-28T16.17.07.957;3.670;-0.001;-0.069;1.095;3.720;66.768;-0.976
1,72753E+12;2024-09-28T16.17.07.967;3.680;0.001;-0.060;1.068;3.780;57.622;-0.732
1,72753E+12;2024-09-28T16.17.07.977;3.690;0.004;-0.054;1.047;2.378;49.451;0.183
1,72753E+12;2024-09-28T16.17.07.987;3.700;-0.014;-0.051;1.027;-0.061;39.756;2.256
1,72753E+12;2024-09-28T16.17.07.997;3.710;-0.008;-0.043;1.017;-3.293;31.159;3.049
1,72753E+12;2024-09-28T16.17.08.007;3.720;0.029;-0.044;1.018;-6.707;25.610;1.220
1,72753E+12;2024-09-28T16.17.08.017;3.730;0.042;-0.049;1.034;-8.232;21.524;-0.732
1,72753E+12;2024-09-28T16.17.08.027;3.740;0.003;-0.061;1.039;-7.988;15.061;-0.671
1,72753E+12;2024-09-28T16.17.08.037;3.750;-0.022;-0.072;1.034;-6.098;5.244;0.488
1,72753E+12;2024-09-28T16.17.08.047;3.760;-0.014;-0.075;1.016;-4.024;-4.329;0.061
1,72753E+12;2024-09-28T16.17.08.057;3.770;0.003;-0.075;0.994;-2.256;-11.341;-0.427
1,72753E+12;2024-09-28T16.17.08.067;3.780;0.007;-0.074;0.976;-0.915;-16.220;-0.183
1,72753E+12;2024-09-28T16.17.08.077;3.790;0.010;-0.077;0.967;0.305;-20.793;0.427
1,72753E+12;2024-09-28T16.17.08.087;3.800;0.016;-0.077;0.969;2.195;-24.146;0.549
1,72753E+12;2024-09-28T16.17.08.097;3.810;0.021;-0.077;0.970;4.024;-23.171;0.183
1,72753E+12;2024-09-28T16.17.08.107;3.820;0.046;-0.076;0.975;4.756;-17.073;-0.183
1,72753E+12;2024-09-28T16.17.08.117;3.830;0.074;-0.072;0.979;4.817;-7.073;-0.854
1,72753E+12;2024-09-28T16.17.08.127;3.840;0.084;-0.070;0.978;3.902;1.463;-1.159
1,72753E+12;2024-09-28T16.17.08.137;3.850;0.053;-0.070;0.982;3.659;2.012;-1.037
1,72753E+12;2024-09-28T16.17.08.147;3.860;0.011;-0.077;0.988;4.817;-5.488;-1.159
1,72753E+12;2024-09-28T16.17.08.157;3.870;-0.005;-0.081;0.995;6.463;-16.098;-1.159
1,72753E+12;2024-09-28T16.17.08.167;3.880;0.011;-0.076;1.009;8.537;-24.146;-1.280
1,72753E+12;2024-09-28T16.17.08.177;3.890;0.042;-0.070;1.018;9.878;-22.805;-2.683
1,72753E+12;2024-09-28T16.17.08.187;3.900;0.106;-0.062;1.018;9.085;-10.732;-4.207
1,72753E+12;2024-09-28T16.17.08.197;3.910;0.151;-0.050;1.019;6.159;5.183;-4.329
1,72753E+12;2024-09-28T16.17.08.207;3.920;0.130;-0.048;1.020;3.110;15.122;-3.902
1,72753E+12;2024-09-28T16.17.08.217;3.930;0.081;-0.055;1.025;1.402;15.366;-4.268
1,72753E+12;2024-09-28T16.17.08.227;3.940;0.035;-0.057;1.030;0.854;7.256;-4.268
1,72753E+12;2024-09-28T16.17.08.237;3.950;0.005;-0.059;1.036;1.463;-5.122;-2.866
1,72753E+12;2024-09-28T16.17.08.247;3.960;0.013;-0.061;1.045;2.805;-16.098;-2.378
1,72753E+12;2024-09-28T16.17.08.257;3.970;0.046;-0.059;1.047;4.085;-21.220;-2.500
1,72753E+12;2024-09-28T16.17.08.267;3.980;0.089;-0.053;1.042;4.512;-18.720;-2.927
1,72753E+12;2024-09-28T16.17.08.277;3.990;0.118;-0.045;1.035;2.805;-10.671;-2.927
1,72753E+12;2024-09-28T16.17.08.287;4.000;0.129;-0.045;1.028;0.427;-1.159;-2.073
1,72753E+12;2024-09-28T16.17.08.297;4.010;0.130;-0.040;1.022;-1.646;8.232;-1.585
1,72753E+12;2024-09-28T16.17.08.307;4.020;0.119;-0.043;1.017;-4.085;15.244;-0.976
1,72753E+12;2024-09-28T16.17.08.317;4.030;0.098;-0.051;1.025;-5.183;15.732;0.305
1,72753E+12;2024-09-28T16.17.08.327;4.040;0.059;-0.055;1.033;-4.329;7.927;0.732
1,72753E+12;2024-09-28T16.17.08.337;4.050;0.016;-0.068;1.027;-2.317;-6.341;1.280
1,72753E+12;2024-09-28T16.17.08.347;4.060;-0.008;-0.071;1.017;-0.488;-25.549;2.622
1,72753E+12;2024-09-28T16.17.08.357;4.070;-0.027;-0.071;0.996;0.244;-52.622;4.329
1,72753E+12;2024-09-28T16.17.08.367;4.080;-0.079;-0.073;0.980;0.488;-96.402;7.378
1,72753E+12;2024-09-28T16.17.08.377;4.090;-0.158;-0.080;0.973;2.866;-166.524;11.220
1,72753E+12;2024-09-28T16.17.08.387;4.100;-0.253;-0.094;0.974;10.366;-254.207;12.866
1,72753E+12;2024-09-28T16.17.08.397;4.110;-0.238;-0.091;0.944;19.268;-338.659;11.402
1,72753E+12;2024-09-28T16.17.08.407;4.120;-0.084;-0.085;0.896;27.134;-404.756;9.024
1,72753E+12;2024-09-28T16.17.08.417;4.130;0.093;-0.079;0.857;32.988;-448.110;5.122
1,72753E+12;2024-09-28T16.17.08.427;4.140;0.207;-0.087;0.803;36.524;-491.098;4.390
1,72753E+12;2024-09-28T16.17.08.437;4.150;0.190;-0.093;0.750;40.549;-543.232;6.402
1,72753E+12;2024-09-28T16.17.08.447;4.160;0.203;-0.061;0.686;41.402;-597.561;8.354
1,72753E+12;2024-09-28T16.17.08.457;4.170;0.361;-0.044;0.604;42.256;-653.963;10.976
1,72753E+12;2024-09-28T16.17.08.467;4.180;0.496;-0.077;0.522;48.354;-728.720;7.927
1,72753E+12;2024-09-28T16.17.08.477;4.190;0.469;-0.064;0.386;51.890;-831.463;0.427
1,72753E+12;2024-09-28T16.17.08.487;4.200;0.385;-0.019;0.137;49.024;-947.378;-9.024
1,72753E+12;2024-09-28T16.17.08.497;4.210;0.464;0.046;-0.180;43.171;-1.030.488;-26.829
1,72753E+12;2024-09-28T16.17.08.507;4.220;0.767;0.071;-0.457;38.720;-1.046.707;-41.280
1,72753E+12;2024-09-28T16.17.08.517;4.230;1.086;0.047;-0.665;34.146;-1.000.488;-43.659
1,72753E+12;2024-09-28T16.17.08.527;4.240;1.251;0.091;-0.792;27.622;-913.781;-43.841
1,72753E+12;2024-09-28T16.17.08.537;4.250;1.328;0.111;-0.838;19.024;-789.939;-39.512
1,72753E+12;2024-09-28T16.17.08.547;4.260;1.439;0.099;-0.816;10.366;-642.073;-27.561
1,72753E+12;2024-09-28T16.17.08.557;4.270;1.442;0.083;-0.751;2.622;-497.866;-11.585
1,72753E+12;2024-09-28T16.17.08.567;4.280;1.248;0.080;-0.725;-8.171;-378.598;-0.061
1,72753E+12;2024-09-28T16.17.08.577;4.290;1.060;0.090;-0.739;-17.927;-284.390;3.841
1,72753E+12;2024-09-28T16.17.08.587;4.300;0.978;0.071;-0.712;-23.171;-217.500;8.049
1,72753E+12;2024-09-28T16.17.08.597;4.310;0.819;0.056;-0.692;-28.232;-172.012;6.951
1,72753E+12;2024-09-28T16.17.08.607;4.320;0.719;0.054;-0.722;-32.195;-141.402;0.366
1,72753E+12;2024-09-28T16.17.08.617;4.330;0.723;0.057;-0.764;-33.110;-113.476;-6.220
1,72753E+12;2024-09-28T16.17.08.627;4.340;0.735;0.047;-0.799;-31.585;-84.939;-8.963
1,72753E+12;2024-09-28T16.17.08.637;4.350;0.723;0.046;-0.836;-28.963;-57.073;-8.598
1,72753E+12;2024-09-28T16.17.08.647;4.360;0.729;0.057;-0.881;-26.463;-27.195;-6.890
1,72753E+12;2024-09-28T16.17.08.657;4.370;0.775;0.075;-0.941;-23.415;3.720;-2.866
1,72753E+12;2024-09-28T16.17.08.667;4.380;0.762;0.072;-0.957;-20.122;20.915;3.780
1,72753E+12;2024-09-28T16.17.08.677;4.390;0.654;0.069;-0.958;-17.744;19.390;6.341
1,72753E+12;2024-09-28T16.17.08.687;4.400;0.636;0.072;-0.958;-15.061;11.707;5.488
1,72753E+12;2024-09-28T16.17.08.697;4.410;0.689;0.058;-0.945;-11.037;7.622;4.695
1,72753E+12;2024-09-28T16.17.08.707;4.420;0.687;0.054;-0.938;-6.524;11.098;4.207
1,72753E+12;2024-09-28T16.17.08.717;4.430;0.717;0.055;-0.932;-1.585;24.451;4.634
1,72753E+12;2024-09-28T16.17.08.727;4.440;0.765;0.050;-0.907;3.476;43.720;6.707
1,72753E+12;2024-09-28T16.17.08.737;4.450;0.751;0.053;-0.887;8.415;59.756;9.085
1,72753E+12;2024-09-28T16.17.08.747;4.460;0.696;0.054;-0.866;12.378;63.780;11.220
1,72753E+12;2024-09-28T16.17.08.757;4.470;0.639;0.061;-0.843;14.756;57.073;11.829
1,72753E+12;2024-09-28T16.17.08.767;4.480;0.621;0.062;-0.812;15.732;48.293;10.793
1,72753E+12;2024-09-28T16.17.08.777;4.490;0.644;0.064;-0.786;15.793;46.402;9.085
1,72753E+12;2024-09-28T16.17.08.787;4.500;0.686;0.067;-0.769;14.756;58.110;8.232
1,72753E+12;2024-09-28T16.17.08.797;4.510;0.744;0.063;-0.756;12.500;85.000;8.902
1,72753E+12;2024-09-28T16.17.08.807;4.520;0.813;0.062;-0.745;9.329;126.707;10.915
1,72753E+12;2024-09-28T16.17.08.817;4.530;0.881;0.062;-0.738;5.488;180.915;14.207
1,72753E+12;2024-09-28T16.17.08.827;4.540;0.934;0.060;-0.728;1.463;242.317;18.659
1,72753E+12;2024-09-28T16.17.08.837;4.550;0.974;0.054;-0.716;-1.951;300.915;24.390
1,72753E+12;2024-09-28T16.17.08.847;4.560;0.967;0.044;-0.688;-4.756;348.171;30.122
1,72753E+12;2024-09-28T16.17.08.857;4.570;0.929;0.043;-0.654;-7.012;380.793;33.780
1,72753E+12;2024-09-28T16.17.08.867;4.580;0.917;0.044;-0.608;-8.902;400.732;35.122
1,72753E+12;2024-09-28T16.17.08.877;4.590;0.921;0.046;-0.553;-10.732;410.793;35.244
1,72753E+12;2024-09-28T16.17.08.887;4.600;0.914;0.032;-0.491;-12.683;410.244;34.817
1,72753E+12;2024-09-28T16.17.08.897;4.610;0.896;0.032;-0.425;-14.756;402.744;33.232
1,72753E+12;2024-09-28T16.17.08.907;4.620;0.911;0.037;-0.361;-16.585;391.524;30.122
1,72753E+12;2024-09-28T16.17.08.917;4.630;0.928;0.027;-0.283;-17.378;381.585;25.793
1,72753E+12;2024-09-28T16.17.08.927;4.640;0.954;0.022;-0.214;-16.646;377.866;22.317
1,72753E+12;2024-09-28T16.17.08.937;4.650;0.999;0.017;-0.156;-14.939;380.244;20.976
1,72753E+12;2024-09-28T16.17.08.947;4.660;1.022;0.016;-0.098;-13.963;385.488;20.732
1,72753E+12;2024-09-28T16.17.08.957;4.670;1.007;0.009;-0.041;-14.085;388.171;22.134
1,72753E+12;2024-09-28T16.17.08.967;4.680;0.956;0.006;0.028;-14.634;385.183;22.805
1,72753E+12;2024-09-28T16.17.08.977;4.690;0.922;0.009;0.090;-15.976;377.561;22.561
1,72753E+12;2024-09-28T16.17.08.987;4.700;0.910;0.005;0.151;-17.683;369.634;21.159
1,72753E+12;2024-09-28T16.17.08.997;4.710;0.905;-0.013;0.228;-18.293;363.049;19.451
1,72753E+12;2024-09-28T16.17.09.007;4.720;0.894;-0.027;0.302;-17.927;361.890;16.646
1,72753E+12;2024-09-28T16.17.09.017;4.730;0.905;-0.028;0.361;-16.585;371.098;13.659
1,72753E+12;2024-09-28T16.17.09.027;4.740;0.938;-0.046;0.414;-14.146;387.988;11.951
1,72753E+12;2024-09-28T16.17.09.037;4.750;0.913;-0.057;0.453;-12.866;407.988;12.134
1,72753E+12;2024-09-28T16.17.09.047;4.760;0.847;-0.049;0.471;-13.476;427.134;13.598
1,72753E+12;2024-09-28T16.17.09.057;4.770;0.805;-0.028;0.500;-15.305;453.293;14.512
1,72753E+12;2024-09-28T16.17.09.067;4.780;0.826;-0.029;0.557;-15.732;488.902;15.427
1,72753E+12;2024-09-28T16.17.09.077;4.790;0.798;-0.062;0.623;-15.915;515.854;17.927
1,72753E+12;2024-09-28T16.17.09.087;4.800;0.619;-0.072;0.670;-14.695;516.707;19.451
1,72753E+12;2024-09-28T16.17.09.097;4.810;0.383;-0.068;0.723;-12.439;489.085;17.988
1,72753E+12;2024-09-28T16.17.09.107;4.820;0.223;-0.089;0.805;-8.293;439.329;16.402
1,72753E+12;2024-09-28T16.17.09.117;4.830;0.124;-0.111;0.902;-4.512;376.037;16.402
1,72753E+12;2024-09-28T16.17.09.127;4.840;0.018;-0.084;0.961;-2.622;296.768;13.232
1,72753E+12;2024-09-28T16.17.09.137;4.850;-0.089;-0.092;1.014;1.159;207.378;8.476
1,72753E+12;2024-09-28T16.17.09.147;4.860;-0.164;-0.099;1.059;6.707;124.878;3.902
1,72753E+12;2024-09-28T16.17.09.157;4.870;-0.140;-0.088;1.079;10.122;68.537;2.195
1,72753E+12;2024-09-28T16.17.09.167;4.880;-0.011;-0.076;1.089;10.976;49.573;1.037
1,72753E+12;2024-09-28T16.17.09.177;4.890;0.164;-0.053;1.089;6.280;65.549;-2.012
1,72753E+12;2024-09-28T16.17.09.187;4.900;0.250;-0.044;1.075;-2.988;91.768;-2.683
1,72753E+12;2024-09-28T16.17.09.197;4.910;0.171;-0.047;1.070;-10.549;105.061;-0.732
1,72753E+12;2024-09-28T16.17.09.207;4.920;0.039;-0.054;1.057;-14.268;95.610;1.768
1,72753E+12;2024-09-28T16.17.09.217;4.930;-0.062;-0.066;1.048;-15.366;68.841;3.354
1,72753E+12;2024-09-28T16.17.09.227;4.940;-0.117;-0.073;1.043;-14.085;35.976;3.232
1,72753E+12;2024-09-28T16.17.09.237;4.950;-0.119;-0.074;1.034;-11.402;6.951;3.293
1,72753E+12;2024-09-28T16.17.09.247;4.960;-0.071;-0.076;1.037;-8.110;-13.720;2.073
1,72753E+12;2024-09-28T16.17.09.257;4.970;-0.011;-0.082;1.029;-4.756;-23.720;-0.061
1,72753E+12;2024-09-28T16.17.09.267;4.980;0.038;-0.082;1.009;;;
1,72753E+12;2024-09-28T16.17.09.277;4.990;0.087;-0.072;0.987;;;
