epoc (ms);timestamp (+0300);elapsed (s);acc_x;acc_y;acc_z;gyr_x;gyr_y;gyr_z
1,72753E+12;2024-09-28T16.23.16.678;0.000;0.104;0.047;0.892;3.049;131.585;19.146
1,72753E+12;2024-09-28T16.23.16.688;0.010;0.158;0.050;0.947;2.012;130.976;19.390
1,72753E+12;2024-09-28T16.23.16.698;0.020;0.183;0.048;0.985;-3.110;128.476;17.988
1,72753E+12;2024-09-28T16.23.16.708;0.030;0.176;0.034;1.017;-6.220;126.341;16.707
1,72753E+12;2024-09-28T16.23.16.718;0.040;0.123;0.030;1.020;-8.110;119.268;14.390
1,72753E+12;2024-09-28T16.23.16.728;0.050;0.051;0.010;1.015;-8.232;98.902;14.390
1,72753E+12;2024-09-28T16.23.16.738;0.060;-0.010;-0.002;1.013;-5.305;69.695;12.561
1,72753E+12;2024-09-28T16.23.16.748;0.070;-0.015;-0.001;1.008;-2.500;42.378;10.061
1,72753E+12;2024-09-28T16.23.16.758;0.080;0.006;0.004;0.997;-0.427;21.341;8.415
1,72753E+12;2024-09-28T16.23.16.768;0.090;0.021;0.017;0.974;0.183;7.927;7.012
1,72753E+12;2024-09-28T16.23.16.778;0.100;0.042;0.028;0.965;-0.976;3.049;5.976
1,72753E+12;2024-09-28T16.23.16.788;0.110;0.084;0.035;0.955;-3.110;3.476;4.878
1,72753E+12;2024-09-28T16.23.16.798;0.120;0.102;0.038;0.964;-4.634;7.378;2.561
1,72753E+12;2024-09-28T16.23.16.808;0.130;0.086;0.033;0.968;-5.915;14.634;0.366
1,72753E+12;2024-09-28T16.23.16.818;0.140;0.091;0.019;0.964;-7.073;19.939;1.220
1,72753E+12;2024-09-28T16.23.16.828;0.150;0.077;0.010;0.967;-6.585;18.659;0.976
1,72753E+12;2024-09-28T16.23.16.838;0.160;0.057;-0.001;0.968;-4.817;10.854;0.305
1,72753E+12;2024-09-28T16.23.16.848;0.170;0.048;-0.009;0.970;-1.951;-0.854;-0.305
1,72753E+12;2024-09-28T16.23.16.858;0.180;0.044;-0.013;0.968;1.220;-11.890;-0.793
1,72753E+12;2024-09-28T16.23.16.868;0.190;0.057;-0.012;0.967;3.415;-20.549;-1.280
1,72753E+12;2024-09-28T16.23.16.878;0.200;0.089;-0.004;0.964;4.756;-22.988;-2.256
1,72753E+12;2024-09-28T16.23.16.888;0.210;0.131;0.002;0.964;4.512;-16.037;-3.110
1,72753E+12;2024-09-28T16.23.16.898;0.220;0.160;0.014;0.971;2.683;-1.768;-3.354
1,72753E+12;2024-09-28T16.23.16.908;0.230;0.166;0.010;0.974;0.366;9.451;-1.463
1,72753E+12;2024-09-28T16.23.16.918;0.240;0.140;0.006;0.983;-0.122;11.341;-0.427
1,72753E+12;2024-09-28T16.23.16.928;0.250;0.096;-0.002;0.997;0.854;3.902;-0.488
1,72753E+12;2024-09-28T16.23.16.938;0.260;0.072;-0.003;1.010;2.988;-8.598;-0.793
1,72753E+12;2024-09-28T16.23.16.948;0.270;0.080;0.000;1.007;4.146;-21.646;-1.280
1,72753E+12;2024-09-28T16.23.16.958;0.280;0.090;-0.002;1.002;5.122;-30.549;-1.707
1,72753E+12;2024-09-28T16.23.16.968;0.290;0.116;0.004;1.005;5.122;-30.427;-1.707
1,72753E+12;2024-09-28T16.23.16.978;0.300;0.159;0.010;1.009;3.780;-20.183;-1.159
1,72753E+12;2024-09-28T16.23.16.988;0.310;0.194;0.012;1.007;0.976;-5.244;-0.488
1,72753E+12;2024-09-28T16.23.16.998;0.320;0.191;0.014;0.998;-2.012;3.232;0.732
1,72753E+12;2024-09-28T16.23.17.008;0.330;0.138;0.011;0.994;-2.927;-0.366;1.585
1,72753E+12;2024-09-28T16.23.17.018;0.340;0.083;0.003;0.994;-2.256;-14.695;2.134
1,72753E+12;2024-09-28T16.23.17.028;0.350;0.060;-0.002;0.990;-0.671;-35.793;1.890
1,72753E+12;2024-09-28T16.23.17.038;0.360;0.071;-0.001;0.990;0.732;-59.573;0.488
1,72753E+12;2024-09-28T16.23.17.048;0.370;0.077;-0.001;0.987;2.988;-82.500;-1.402
1,72753E+12;2024-09-28T16.23.17.058;0.380;0.086;0.005;0.983;5.549;-93.841;-3.537
1,72753E+12;2024-09-28T16.23.17.068;0.390;0.161;0.012;0.961;4.939;-92.439;-3.659
1,72753E+12;2024-09-28T16.23.17.078;0.400;0.223;0.018;0.955;3.110;-86.037;-3.537
1,72753E+12;2024-09-28T16.23.17.088;0.410;0.227;0.014;0.955;1.585;-84.085;-4.329
1,72753E+12;2024-09-28T16.23.17.098;0.420;0.180;0.009;0.938;0.427;-98.354;-4.085
1,72753E+12;2024-09-28T16.23.17.108;0.430;0.106;-0.002;0.922;1.768;-136.098;-1.768
1,72753E+12;2024-09-28T16.23.17.118;0.440;0.050;-0.011;0.910;6.768;-188.720;-2.805
1,72753E+12;2024-09-28T16.23.17.128;0.450;0.079;-0.006;0.890;10.793;-248.476;-6.951
1,72753E+12;2024-09-28T16.23.17.138;0.460;0.121;0.001;0.865;15.549;-307.012;-12.317
1,72753E+12;2024-09-28T16.23.17.148;0.470;0.172;0.008;0.832;19.146;-353.963;-17.988
1,72753E+12;2024-09-28T16.23.17.158;0.480;0.281;0.010;0.783;21.220;-388.415;-19.878
1,72753E+12;2024-09-28T16.23.17.168;0.490;0.396;0.024;0.744;25.183;-388.232;-24.207
1,72753E+12;2024-09-28T16.23.17.178;0.500;0.632;0.068;0.730;25.793;-324.451;-29.268
1,72753E+12;2024-09-28T16.23.17.188;0.510;0.961;0.077;0.735;12.805;-234.451;-21.524
1,72753E+12;2024-09-28T16.23.17.198;0.520;0.971;0.043;0.743;4.695;-177.866;-8.598
1,72753E+12;2024-09-28T16.23.17.208;0.530;0.701;0.003;0.716;10.183;-179.817;-4.268
1,72753E+12;2024-09-28T16.23.17.218;0.540;0.483;-0.021;0.661;18.110;-247.866;-0.549
1,72753E+12;2024-09-28T16.23.17.228;0.550;0.328;0.003;0.600;26.037;-351.098;-3.598
1,72753E+12;2024-09-28T16.23.17.238;0.560;0.349;0.042;0.505;33.049;-452.256;-14.634
1,72753E+12;2024-09-28T16.23.17.248;0.570;0.542;0.062;0.398;37.134;-518.354;-27.927
1,72753E+12;2024-09-28T16.23.17.258;0.580;0.755;0.078;0.297;37.378;-540.671;-36.341
1,72753E+12;2024-09-28T16.23.17.268;0.590;0.920;0.100;0.224;35.366;-534.756;-39.207
1,72753E+12;2024-09-28T16.23.17.278;0.600;1.011;0.109;0.181;34.085;-541.707;-36.280
1,72753E+12;2024-09-28T16.23.17.288;0.610;0.880;0.104;0.099;29.878;-576.098;-32.683
1,72753E+12;2024-09-28T16.23.17.298;0.620;0.739;0.179;-0.045;20.610;-620.305;-36.524
1,72753E+12;2024-09-28T16.23.17.308;0.630;0.842;0.208;-0.189;8.476;-656.768;-37.744
1,72753E+12;2024-09-28T16.23.17.318;0.640;1.008;0.243;-0.307;-5.305;-645.549;-39.146
1,72753E+12;2024-09-28T16.23.17.328;0.650;1.274;0.258;-0.388;-18.659;-573.902;-40.000
1,72753E+12;2024-09-28T16.23.17.338;0.660;1.529;0.190;-0.369;-29.512;-467.256;-31.341
1,72753E+12;2024-09-28T16.23.17.348;0.670;1.490;0.144;-0.329;-37.317;-357.561;-20.915
1,72753E+12;2024-09-28T16.23.17.358;0.680;1.292;0.106;-0.323;-36.220;-290.854;-10.061
1,72753E+12;2024-09-28T16.23.17.368;0.690;1.012;0.084;-0.370;-30.305;-284.451;0.671
1,72753E+12;2024-09-28T16.23.17.378;0.700;0.717;0.106;-0.461;-25.488;-318.963;4.878
1,72753E+12;2024-09-28T16.23.17.388;0.710;0.665;0.154;-0.580;-24.573;-359.268;0.732
1,72753E+12;2024-09-28T16.23.17.398;0.720;0.787;0.176;-0.676;-27.683;-379.451;-3.537
1,72753E+12;2024-09-28T16.23.17.408;0.730;0.883;0.182;-0.765;-30.366;-359.390;-8.476
1,72753E+12;2024-09-28T16.23.17.418;0.740;1.005;0.188;-0.800;-33.841;-297.988;-11.707
1,72753E+12;2024-09-28T16.23.17.428;0.750;1.101;0.171;-0.801;-35.122;-208.110;-10.976
1,72753E+12;2024-09-28T16.23.17.438;0.760;1.115;0.154;-0.783;-33.415;-105.122;-6.341
1,72753E+12;2024-09-28T16.23.17.448;0.770;1.079;0.144;-0.774;-28.902;-5.610;0.732
1,72753E+12;2024-09-28T16.23.17.458;0.780;0.992;0.145;-0.796;-23.293;82.927;9.024
1,72753E+12;2024-09-28T16.23.17.468;0.790;0.921;0.161;-0.826;-18.415;162.561;16.341
1,72753E+12;2024-09-28T16.23.17.478;0.800;0.931;0.170;-0.855;-15.000;227.317;23.537
1,72753E+12;2024-09-28T16.23.17.488;0.810;0.897;0.173;-0.863;-11.768;252.378;32.744
1,72753E+12;2024-09-28T16.23.17.498;0.820;0.681;0.162;-0.867;-7.805;225.183;37.195
1,72753E+12;2024-09-28T16.23.17.508;0.830;0.467;0.169;-0.848;-5.305;166.341;33.476
1,72753E+12;2024-09-28T16.23.17.518;0.840;0.499;0.190;-0.813;-5.244;100.671;27.622
1,72753E+12;2024-09-28T16.23.17.528;0.850;0.632;0.188;-0.762;-3.841;46.524;21.524
1,72753E+12;2024-09-28T16.23.17.538;0.860;0.735;0.177;-0.704;0.000;17.256;13.780
1,72753E+12;2024-09-28T16.23.17.548;0.870;0.849;0.157;-0.644;3.902;14.146;6.220
1,72753E+12;2024-09-28T16.23.17.558;0.880;0.908;0.149;-0.613;8.049;33.780;2.012
1,72753E+12;2024-09-28T16.23.17.568;0.890;0.922;0.144;-0.599;10.793;69.512;3.537
1,72753E+12;2024-09-28T16.23.17.578;0.900;0.945;0.148;-0.585;11.463;113.537;8.110
1,72753E+12;2024-09-28T16.23.17.588;0.910;0.969;0.152;-0.575;10.183;159.756;14.634
1,72753E+12;2024-09-28T16.23.17.598;0.920;0.975;0.155;-0.560;7.622;202.256;21.951
1,72753E+12;2024-09-28T16.23.17.608;0.930;0.974;0.156;-0.541;4.756;234.268;27.866
1,72753E+12;2024-09-28T16.23.17.618;0.940;0.972;0.149;-0.508;2.927;253.293;30.549
1,72753E+12;2024-09-28T16.23.17.628;0.950;0.962;0.143;-0.475;1.463;266.646;30.366
1,72753E+12;2024-09-28T16.23.17.638;0.960;0.988;0.147;-0.453;-0.671;288.415;28.415
1,72753E+12;2024-09-28T16.23.17.648;0.970;1.114;0.141;-0.410;-3.110;319.329;27.744
1,72753E+12;2024-09-28T16.23.17.658;0.980;1.206;0.132;-0.361;-3.232;355.000;26.280
1,72753E+12;2024-09-28T16.23.17.668;0.990;1.185;0.116;-0.320;-1.890;392.439;26.829
1,72753E+12;2024-09-28T16.23.17.678;1.000;1.145;0.106;-0.276;-1.341;430.305;32.012
1,72753E+12;2024-09-28T16.23.17.688;1.010;1.135;0.123;-0.217;-3.598;468.049;40.915
1,72753E+12;2024-09-28T16.23.17.698;1.020;1.153;0.130;-0.156;-6.707;506.402;50.915
1,72753E+12;2024-09-28T16.23.17.708;1.030;1.195;0.141;-0.100;-13.110;548.232;56.951
1,72753E+12;2024-09-28T16.23.17.718;1.040;1.233;0.169;-0.062;-22.317;594.085;59.390
1,72753E+12;2024-09-28T16.23.17.728;1.050;1.221;0.157;-0.004;-30.915;630.915;62.012
1,72753E+12;2024-09-28T16.23.17.738;1.060;1.055;0.134;0.056;-38.110;650.488;63.963
1,72753E+12;2024-09-28T16.23.17.748;1.070;0.854;0.103;0.147;-42.744;650.732;68.354
1,72753E+12;2024-09-28T16.23.17.758;1.080;0.722;0.061;0.277;-40.366;635.000;72.561
1,72753E+12;2024-09-28T16.23.17.768;1.090;0.645;0.015;0.410;-29.573;609.573;75.183
1,72753E+12;2024-09-28T16.23.17.778;1.100;0.617;-0.005;0.517;-17.012;580.671;70.671
1,72753E+12;2024-09-28T16.23.17.788;1.110;0.548;-0.032;0.594;-5.122;544.817;66.707
1,72753E+12;2024-09-28T16.23.17.798;1.120;0.408;-0.033;0.623;0.610;490.244;61.341
1,72753E+12;2024-09-28T16.23.17.808;1.130;0.231;-0.034;0.678;2.317;419.207;55.000
1,72753E+12;2024-09-28T16.23.17.818;1.140;0.084;-0.010;0.751;1.341;340.976;46.951
1,72753E+12;2024-09-28T16.23.17.828;1.150;0.099;0.002;0.823;-1.159;274.878;38.110
1,72753E+12;2024-09-28T16.23.17.838;1.160;0.170;0.005;0.866;-6.098;223.415;28.415
1,72753E+12;2024-09-28T16.23.17.848;1.170;0.108;-0.011;0.918;-9.512;184.817;21.463
1,72753E+12;2024-09-28T16.23.17.858;1.180;0.054;-0.022;0.965;-11.463;160.000;18.049
1,72753E+12;2024-09-28T16.23.17.868;1.190;0.070;-0.040;0.995;-14.024;140.549;18.232
1,72753E+12;2024-09-28T16.23.17.878;1.200;0.068;-0.056;1.021;-13.232;121.280;15.610
1,72753E+12;2024-09-28T16.23.17.888;1.210;0.028;-0.064;1.024;-10.793;99.451;13.171
1,72753E+12;2024-09-28T16.23.17.898;1.220;-0.020;-0.066;1.010;-7.195;76.159;11.524
1,72753E+12;2024-09-28T16.23.17.908;1.230;-0.039;-0.061;0.983;-4.695;55.976;10.366
1,72753E+12;2024-09-28T16.23.17.918;1.240;-0.024;-0.048;0.954;-4.390;39.695;9.512
1,72753E+12;2024-09-28T16.23.17.928;1.250;-0.005;-0.032;0.931;-4.939;26.280;8.232
1,72753E+12;2024-09-28T16.23.17.938;1.260;0.018;-0.022;0.926;-6.341;18.049;5.793
1,72753E+12;2024-09-28T16.23.17.948;1.270;0.015;-0.021;0.926;-7.134;12.622;4.207
1,72753E+12;2024-09-28T16.23.17.958;1.280;-0.009;-0.033;0.934;-6.280;6.585;4.146
1,72753E+12;2024-09-28T16.23.17.968;1.290;-0.006;-0.042;0.941;-4.024;1.037;3.232
1,72753E+12;2024-09-28T16.23.17.978;1.300;0.012;-0.048;0.947;-1.524;-1.341;1.159
1,72753E+12;2024-09-28T16.23.17.988;1.310;0.031;-0.056;0.944;0.915;-0.183;0.061
1,72753E+12;2024-09-28T16.23.17.998;1.320;0.048;-0.058;0.942;2.683;1.524;-0.366
1,72753E+12;2024-09-28T16.23.18.008;1.330;0.046;-0.057;0.948;4.451;1.463;-1.768
1,72753E+12;2024-09-28T16.23.18.018;1.340;0.038;-0.059;0.951;6.280;-0.061;-2.805
1,72753E+12;2024-09-28T16.23.18.028;1.350;0.039;-0.055;0.959;7.927;-4.024;-2.683
1,72753E+12;2024-09-28T16.23.18.038;1.360;0.027;-0.051;0.961;9.146;-9.329;-3.598
1,72753E+12;2024-09-28T16.23.18.048;1.370;0.031;-0.052;0.961;9.878;-13.659;-4.146
1,72753E+12;2024-09-28T16.23.18.058;1.380;0.060;-0.045;0.976;9.878;-12.866;-4.939
1,72753E+12;2024-09-28T16.23.18.068;1.390;0.088;-0.042;0.993;9.024;-5.000;-5.732
1,72753E+12;2024-09-28T16.23.18.078;1.400;0.105;-0.041;1.006;7.195;3.720;-4.939
1,72753E+12;2024-09-28T16.23.18.088;1.410;0.094;-0.038;1.015;6.098;6.829;-4.146
1,72753E+12;2024-09-28T16.23.18.098;1.420;0.066;-0.039;1.018;5.427;2.073;-3.598
1,72753E+12;2024-09-28T16.23.18.108;1.430;0.039;-0.036;1.017;5.549;-7.012;-3.293
1,72753E+12;2024-09-28T16.23.18.118;1.440;0.050;-0.031;1.018;5.488;-13.720;-3.415
1,72753E+12;2024-09-28T16.23.18.128;1.450;0.084;-0.028;1.022;4.878;-17.073;-3.598
1,72753E+12;2024-09-28T16.23.18.138;1.460;0.098;-0.026;1.027;4.451;-17.439;-3.780
1,72753E+12;2024-09-28T16.23.18.148;1.470;0.100;-0.025;1.024;3.537;-16.463;-3.415
1,72753E+12;2024-09-28T16.23.18.158;1.480;0.098;-0.021;1.016;2.622;-17.073;-2.378
1,72753E+12;2024-09-28T16.23.18.168;1.490;0.096;-0.023;1.005;2.073;-21.585;-1.220
1,72753E+12;2024-09-28T16.23.18.178;1.500;0.088;-0.026;0.996;1.951;-30.671;-1.098
1,72753E+12;2024-09-28T16.23.18.188;1.510;0.066;-0.031;0.984;2.439;-45.610;-0.854
1,72753E+12;2024-09-28T16.23.18.198;1.520;0.049;-0.033;0.976;3.171;-70.122;0.061
1,72753E+12;2024-09-28T16.23.18.208;1.530;0.004;-0.037;0.962;4.268;-110.732;1.463
1,72753E+12;2024-09-28T16.23.18.218;1.540;-0.057;-0.042;0.941;7.012;-172.073;2.988
1,72753E+12;2024-09-28T16.23.18.228;1.550;-0.097;-0.047;0.918;13.415;-246.829;2.134
1,72753E+12;2024-09-28T16.23.18.238;1.560;-0.059;-0.038;0.889;20.488;-315.671;-3.659
1,72753E+12;2024-09-28T16.23.18.248;1.570;0.061;-0.027;0.851;22.805;-372.256;-9.390
1,72753E+12;2024-09-28T16.23.18.258;1.580;0.159;-0.011;0.820;23.476;-412.927;-16.707
1,72753E+12;2024-09-28T16.23.18.268;1.590;0.261;0.002;0.785;21.951;-434.756;-23.963
1,72753E+12;2024-09-28T16.23.18.278;1.600;0.365;-0.001;0.730;17.378;-455.244;-23.598
1,72753E+12;2024-09-28T16.23.18.288;1.610;0.394;-0.008;0.673;14.756;-482.317;-23.537
1,72753E+12;2024-09-28T16.23.18.298;1.620;0.450;0.008;0.630;13.171;-507.317;-28.598
1,72753E+12;2024-09-28T16.23.18.308;1.630;0.582;0.013;0.596;11.890;-528.781;-33.476
1,72753E+12;2024-09-28T16.23.18.318;1.640;0.676;0.010;0.554;12.256;-545.366;-38.780
1,72753E+12;2024-09-28T16.23.18.328;1.650;0.744;0.014;0.493;13.171;-556.951;-44.207
1,72753E+12;2024-09-28T16.23.18.338;1.660;0.806;0.024;0.414;14.512;-574.756;-46.341
1,72753E+12;2024-09-28T16.23.18.348;1.670;0.801;0.028;0.306;16.037;-601.524;-47.256
1,72753E+12;2024-09-28T16.23.18.358;1.680;0.785;0.061;0.179;15.488;-632.561;-49.268
1,72753E+12;2024-09-28T16.23.18.368;1.690;0.832;0.076;0.063;13.963;-666.951;-48.841
1,72753E+12;2024-09-28T16.23.18.378;1.700;0.853;0.108;-0.075;10.122;-692.134;-49.207
1,72753E+12;2024-09-28T16.23.18.388;1.710;0.920;0.149;-0.229;4.085;-695.915;-49.878
1,72753E+12;2024-09-28T16.23.18.398;1.720;1.054;0.166;-0.363;-4.512;-666.951;-47.012
1,72753E+12;2024-09-28T16.23.18.408;1.730;1.205;0.177;-0.453;-12.622;-606.341;-40.366
1,72753E+12;2024-09-28T16.23.18.418;1.740;1.304;0.152;-0.491;-19.756;-527.988;-30.366
1,72753E+12;2024-09-28T16.23.18.428;1.750;1.279;0.146;-0.509;-25.793;-443.415;-21.341
1,72753E+12;2024-09-28T16.23.18.438;1.760;1.197;0.127;-0.533;-28.720;-379.207;-9.939
1,72753E+12;2024-09-28T16.23.18.448;1.770;1.003;0.090;-0.579;-29.024;-343.171;2.134
1,72753E+12;2024-09-28T16.23.18.458;1.780;0.835;0.123;-0.655;-30.000;-313.780;2.561
1,72753E+12;2024-09-28T16.23.18.468;1.790;0.923;0.143;-0.715;-32.134;-277.256;0.793
1,72753E+12;2024-09-28T16.23.18.478;1.800;1.006;0.126;-0.752;-33.659;-226.280;2.012
1,72753E+12;2024-09-28T16.23.18.488;1.810;0.977;0.124;-0.781;-33.963;-170.305;3.171
1,72753E+12;2024-09-28T16.23.18.498;1.820;0.909;0.118;-0.801;-32.805;-129.573;5.610
1,72753E+12;2024-09-28T16.23.18.508;1.830;0.771;0.122;-0.839;-31.098;-97.683;5.671
1,72753E+12;2024-09-28T16.23.18.518;1.840;0.751;0.128;-0.856;-28.476;-75.549;5.610
1,72753E+12;2024-09-28T16.23.18.528;1.850;0.746;0.126;-0.853;-23.963;-65.244;7.866
1,72753E+12;2024-09-28T16.23.18.538;1.860;0.639;0.120;-0.850;-18.720;-65.183;8.049
1,72753E+12;2024-09-28T16.23.18.548;1.870;0.590;0.128;-0.862;-14.085;-66.402;5.549
1,72753E+12;2024-09-28T16.23.18.558;1.880;0.640;0.137;-0.870;-10.732;-61.463;3.720
1,72753E+12;2024-09-28T16.23.18.568;1.890;0.673;0.140;-0.874;-8.415;-48.902;2.256
1,72753E+12;2024-09-28T16.23.18.578;1.900;0.663;0.136;-0.877;-6.463;-31.524;1.768
1,72753E+12;2024-09-28T16.23.18.588;1.910;0.665;0.138;-0.871;-5.000;-9.390;2.683
1,72753E+12;2024-09-28T16.23.18.598;1.920;0.696;0.133;-0.854;-3.293;15.854;3.902
1,72753E+12;2024-09-28T16.23.18.608;1.930;0.709;0.127;-0.838;-0.854;40.244;5.854
1,72753E+12;2024-09-28T16.23.18.618;1.940;0.687;0.120;-0.825;1.585;57.805;8.110
1,72753E+12;2024-09-28T16.23.18.628;1.950;0.659;0.119;-0.812;3.963;63.720;10.122
1,72753E+12;2024-09-28T16.23.18.638;1.960;0.614;0.123;-0.804;6.037;55.793;11.220
1,72753E+12;2024-09-28T16.23.18.648;1.970;0.573;0.123;-0.795;7.561;37.012;9.878
1,72753E+12;2024-09-28T16.23.18.658;1.980;0.577;0.128;-0.779;8.110;18.902;5.732
1,72753E+12;2024-09-28T16.23.18.668;1.990;0.651;0.132;-0.769;7.866;9.817;2.134
1,72753E+12;2024-09-28T16.23.18.678;2.000;0.705;0.135;-0.763;7.500;13.171;-0.915
1,72753E+12;2024-09-28T16.23.18.688;2.010;0.735;0.131;-0.754;6.463;29.817;-2.805
1,72753E+12;2024-09-28T16.23.18.698;2.020;0.785;0.130;-0.748;5.610;60.915;-2.378
1,72753E+12;2024-09-28T16.23.18.708;2.030;0.841;0.134;-0.748;4.329;106.037;0.427
1,72753E+12;2024-09-28T16.23.18.718;2.040;0.903;0.132;-0.735;3.354;160.061;5.244
1,72753E+12;2024-09-28T16.23.18.728;2.050;0.944;0.124;-0.713;2.988;214.390;11.768
1,72753E+12;2024-09-28T16.23.18.738;2.060;0.941;0.121;-0.690;3.232;261.524;19.085
1,72753E+12;2024-09-28T16.23.18.748;2.070;0.924;0.120;-0.676;3.415;298.415;25.671
1,72753E+12;2024-09-28T16.23.18.758;2.080;0.937;0.128;-0.654;2.622;327.073;29.634
1,72753E+12;2024-09-28T16.23.18.768;2.090;0.994;0.128;-0.617;1.646;351.707;30.732
1,72753E+12;2024-09-28T16.23.18.778;2.100;1.060;0.126;-0.586;0.366;377.439;28.049
1,72753E+12;2024-09-28T16.23.18.788;2.110;1.125;0.130;-0.556;-1.829;406.585;23.110
1,72753E+12;2024-09-28T16.23.18.798;2.120;1.153;0.126;-0.514;-5.427;441.524;18.171
1,72753E+12;2024-09-28T16.23.18.808;2.130;1.145;0.125;-0.472;-10.732;478.537;18.354
1,72753E+12;2024-09-28T16.23.18.818;2.140;1.091;0.131;-0.471;-18.415;515.183;24.512
1,72753E+12;2024-09-28T16.23.18.828;2.150;1.025;0.147;-0.438;-29.146;542.805;36.524
1,72753E+12;2024-09-28T16.23.18.838;2.160;0.947;0.163;-0.361;-42.195;557.256;53.049
1,72753E+12;2024-09-28T16.23.18.848;2.170;0.930;0.167;-0.244;-50.854;558.415;65.244
1,72753E+12;2024-09-28T16.23.18.858;2.180;0.987;0.146;-0.094;-52.317;553.171;68.476
1,72753E+12;2024-09-28T16.23.18.868;2.190;1.007;0.092;0.059;-49.268;545.854;69.024
1,72753E+12;2024-09-28T16.23.18.878;2.200;0.965;0.061;0.170;-43.476;543.110;70.671
1,72753E+12;2024-09-28T16.23.18.888;2.210;0.957;0.024;0.263;-35.671;543.354;74.085
1,72753E+12;2024-09-28T16.23.18.898;2.220;0.936;-0.003;0.349;-26.037;551.159;76.402
1,72753E+12;2024-09-28T16.23.18.908;2.230;0.906;-0.019;0.414;-16.341;563.476;80.854
1,72753E+12;2024-09-28T16.23.18.918;2.240;0.884;-0.028;0.476;-4.756;566.951;83.476
1,72753E+12;2024-09-28T16.23.18.928;2.250;0.788;-0.041;0.526;6.159;546.037;81.768
1,72753E+12;2024-09-28T16.23.18.938;2.260;0.562;-0.047;0.551;13.537;492.805;75.976
1,72753E+12;2024-09-28T16.23.18.948;2.270;0.339;-0.039;0.609;18.171;426.220;67.805
1,72753E+12;2024-09-28T16.23.18.958;2.280;0.293;-0.026;0.683;17.683;366.524;60.549
1,72753E+12;2024-09-28T16.23.18.968;2.290;0.312;-0.016;0.750;14.146;316.951;51.524
1,72753E+12;2024-09-28T16.23.18.978;2.300;0.296;-0.012;0.820;11.768;279.329;40.183
1,72753E+12;2024-09-28T16.23.18.988;2.310;0.248;-0.018;0.859;7.012;247.256;31.159
1,72753E+12;2024-09-28T16.23.18.998;2.320;0.206;-0.040;0.890;4.634;211.951;26.220
1,72753E+12;2024-09-28T16.23.19.008;2.330;0.116;-0.053;0.934;5.671;176.220;21.098
1,72753E+12;2024-09-28T16.23.19.018;2.340;0.071;-0.066;0.958;5.488;144.268;17.378
1,72753E+12;2024-09-28T16.23.19.028;2.350;0.055;-0.074;0.970;6.098;112.988;14.878
1,72753E+12;2024-09-28T16.23.19.038;2.360;0.019;-0.077;0.988;9.207;82.744;12.561
1,72753E+12;2024-09-28T16.23.19.048;2.370;-0.001;-0.067;0.988;11.890;57.866;10.488
1,72753E+12;2024-09-28T16.23.19.058;2.380;-0.016;-0.052;0.974;11.037;42.439;10.976
1,72753E+12;2024-09-28T16.23.19.068;2.390;0.018;-0.048;0.969;8.171;32.744;13.902
1,72753E+12;2024-09-28T16.23.19.078;2.400;0.057;-0.033;0.974;5.244;27.378;14.512
1,72753E+12;2024-09-28T16.23.19.088;2.410;0.080;-0.027;0.986;2.317;24.878;13.415
1,72753E+12;2024-09-28T16.23.19.098;2.420;0.096;-0.026;0.997;-0.061;23.537;11.341
1,72753E+12;2024-09-28T16.23.19.108;2.430;0.096;-0.026;1.009;-1.524;24.634;7.927
1,72753E+12;2024-09-28T16.23.19.118;2.440;0.077;-0.034;1.008;-3.293;22.683;6.280
1,72753E+12;2024-09-28T16.23.19.128;2.450;0.055;-0.038;1.007;-3.232;12.561;5.305
1,72753E+12;2024-09-28T16.23.19.138;2.460;0.036;-0.036;0.995;-2.317;-1.463;3.171
1,72753E+12;2024-09-28T16.23.19.148;2.470;0.039;-0.030;0.977;-1.646;-9.268;0.793
1,72753E+12;2024-09-28T16.23.19.158;2.480;0.075;-0.031;0.971;-2.378;-8.293;0.366
1,72753E+12;2024-09-28T16.23.19.168;2.490;0.105;-0.030;0.972;-3.110;-3.110;0.549
1,72753E+12;2024-09-28T16.23.19.178;2.500;0.108;-0.036;0.980;-3.171;1.220;0.732
1,72753E+12;2024-09-28T16.23.19.188;2.510;0.109;-0.036;0.985;-2.378;2.134;0.732
1,72753E+12;2024-09-28T16.23.19.198;2.520;0.101;-0.039;0.979;-1.098;1.220;0.366
1,72753E+12;2024-09-28T16.23.19.208;2.530;0.093;-0.043;0.972;0.122;-1.159;0.183
1,72753E+12;2024-09-28T16.23.19.218;2.540;0.095;-0.047;0.970;1.524;-4.878;-0.549
1,72753E+12;2024-09-28T16.23.19.228;2.550;0.098;-0.049;0.968;2.866;-9.390;-1.463
1,72753E+12;2024-09-28T16.23.19.238;2.560;0.101;-0.045;0.967;4.085;-9.329;-2.622
1,72753E+12;2024-09-28T16.23.19.248;2.570;0.131;-0.043;0.962;3.110;-1.402;-2.988
1,72753E+12;2024-09-28T16.23.19.258;2.580;0.155;-0.041;0.967;1.220;6.463;-2.012
1,72753E+12;2024-09-28T16.23.19.268;2.590;0.127;-0.045;0.980;0.915;7.439;-1.341
1,72753E+12;2024-09-28T16.23.19.278;2.600;0.088;-0.049;0.982;1.768;1.037;-0.671
1,72753E+12;2024-09-28T16.23.19.288;2.610;0.074;-0.050;0.986;3.232;-8.354;-0.610
1,72753E+12;2024-09-28T16.23.19.298;2.620;0.088;-0.048;0.992;4.085;-18.659;-1.524
1,72753E+12;2024-09-28T16.23.19.308;2.630;0.081;-0.049;0.994;5.305;-32.134;-2.683
1,72753E+12;2024-09-28T16.23.19.318;2.640;0.062;-0.051;0.985;6.829;-49.756;-3.476
1,72753E+12;2024-09-28T16.23.19.328;2.650;0.050;-0.049;0.973;7.683;-72.927;-4.207
1,72753E+12;2024-09-28T16.23.19.338;2.660;0.031;-0.045;0.958;8.780;-104.695;-5.183
1,72753E+12;2024-09-28T16.23.19.348;2.670;0.016;-0.046;0.946;11.280;-146.524;-6.951
1,72753E+12;2024-09-28T16.23.19.358;2.680;0.009;-0.046;0.930;15.305;-195.000;-10.793
1,72753E+12;2024-09-28T16.23.19.368;2.690;0.024;-0.042;0.904;19.390;-244.268;-15.793
1,72753E+12;2024-09-28T16.23.19.378;2.700;0.060;-0.037;0.875;21.951;-289.756;-20.000
1,72753E+12;2024-09-28T16.23.19.388;2.710;0.113;-0.028;0.850;23.841;-327.073;-23.780
1,72753E+12;2024-09-28T16.23.19.398;2.720;0.206;-0.012;0.829;24.268;-348.963;-27.988
1,72753E+12;2024-09-28T16.23.19.408;2.730;0.326;-0.007;0.807;22.073;-361.220;-29.146
1,72753E+12;2024-09-28T16.23.19.418;2.740;0.405;-0.008;0.784;20.122;-373.720;-28.659
1,72753E+12;2024-09-28T16.23.19.428;2.750;0.450;-0.002;0.748;17.134;-398.963;-27.988
1,72753E+12;2024-09-28T16.23.19.438;2.760;0.460;0.018;0.721;14.634;-445.000;-27.622
1,72753E+12;2024-09-28T16.23.19.448;2.770;0.475;0.039;0.688;13.841;-503.110;-31.341
1,72753E+12;2024-09-28T16.23.19.458;2.780;0.592;0.061;0.633;11.159;-553.598;-38.110
1,72753E+12;2024-09-28T16.23.19.468;2.790;0.792;0.063;0.566;7.927;-590.732;-43.049
1,72753E+12;2024-09-28T16.23.19.478;2.800;0.909;0.071;0.472;4.390;-614.268;-46.951
1,72753E+12;2024-09-28T16.23.19.488;2.810;0.975;0.072;0.349;1.524;-627.378;-48.110
1,72753E+12;2024-09-28T16.23.19.498;2.820;1.024;0.058;0.223;-2.805;-637.012;-43.476
1,72753E+12;2024-09-28T16.23.19.508;2.830;1.044;0.082;0.100;-6.768;-632.317;-40.122
1,72753E+12;2024-09-28T16.23.19.518;2.840;1.137;0.088;-0.004;-7.805;-611.646;-37.073
1,72753E+12;2024-09-28T16.23.19.528;2.850;1.190;0.065;-0.077;-6.463;-581.951;-30.366
1,72753E+12;2024-09-28T16.23.19.538;2.860;1.125;0.075;-0.167;-6.768;-550.610;-24.268
1,72753E+12;2024-09-28T16.23.19.548;2.870;1.060;0.104;-0.270;-8.415;-518.232;-22.378
1,72753E+12;2024-09-28T16.23.19.558;2.880;1.047;0.104;-0.349;-10.244;-477.561;-20.000
1,72753E+12;2024-09-28T16.23.19.568;2.890;1.046;0.095;-0.396;-10.793;-435.244;-15.732
1,72753E+12;2024-09-28T16.23.19.578;2.900;0.971;0.094;-0.442;-11.463;-403.476;-10.732
1,72753E+12;2024-09-28T16.23.19.588;2.910;0.844;0.111;-0.509;-13.171;-379.634;-10.854
1,72753E+12;2024-09-28T16.23.19.598;2.920;0.818;0.117;-0.562;-14.390;-355.427;-14.878
1,72753E+12;2024-09-28T16.23.19.608;2.930;0.849;0.107;-0.594;-15.488;-321.402;-18.415
1,72753E+12;2024-09-28T16.23.19.618;2.940;0.843;0.098;-0.614;-15.732;-275.915;-21.159
1,72753E+12;2024-09-28T16.23.19.628;2.950;0.844;0.092;-0.642;-16.159;-220.427;-21.646
1,72753E+12;2024-09-28T16.23.19.638;2.960;0.851;0.093;-0.677;-17.805;-158.293;-18.598
1,72753E+12;2024-09-28T16.23.19.648;2.970;0.836;0.102;-0.724;-20.427;-95.610;-12.805
1,72753E+12;2024-09-28T16.23.19.658;2.980;0.828;0.110;-0.757;-23.537;-40.976;-6.768
1,72753E+12;2024-09-28T16.23.19.668;2.990;0.813;0.114;-0.779;-26.037;1.463;-1.768
1,72753E+12;2024-09-28T16.23.19.678;3.000;0.776;0.113;-0.798;-28.537;29.512;2.073
1,72753E+12;2024-09-28T16.23.19.688;3.010;0.735;0.116;-0.803;-29.695;41.768;4.878
1,72753E+12;2024-09-28T16.23.19.698;3.020;0.693;0.113;-0.803;-29.207;40.610;5.366
1,72753E+12;2024-09-28T16.23.19.708;3.030;0.684;0.113;-0.798;-27.256;31.098;3.415
1,72753E+12;2024-09-28T16.23.19.718;3.040;0.721;0.124;-0.796;-23.415;18.476;-0.549
1,72753E+12;2024-09-28T16.23.19.728;3.050;0.753;0.129;-0.793;-18.537;7.561;-4.146
1,72753E+12;2024-09-28T16.23.19.738;3.060;0.768;0.131;-0.791;-12.866;1.037;-6.463
1,72753E+12;2024-09-28T16.23.19.748;3.070;0.778;0.131;-0.788;-7.073;0.366;-6.890
1,72753E+12;2024-09-28T16.23.19.758;3.080;0.798;0.130;-0.786;-2.073;5.671;-5.366
1,72753E+12;2024-09-28T16.23.19.768;3.090;0.817;0.138;-0.788;1.220;13.780;-2.317
1,72753E+12;2024-09-28T16.23.19.778;3.100;0.809;0.144;-0.790;3.232;22.866;0.610
1,72753E+12;2024-09-28T16.23.19.788;3.110;0.799;0.146;-0.776;4.146;29.573;3.659
1,72753E+12;2024-09-28T16.23.19.798;3.120;0.788;0.149;-0.753;4.878;34.512;5.244
1,72753E+12;2024-09-28T16.23.19.808;3.130;0.782;0.142;-0.731;5.488;38.720;6.098
1,72753E+12;2024-09-28T16.23.19.818;3.140;0.774;0.139;-0.713;5.976;44.329;6.402
1,72753E+12;2024-09-28T16.23.19.828;3.150;0.777;0.140;-0.696;5.610;52.866;6.829
1,72753E+12;2024-09-28T16.23.19.838;3.160;0.797;0.141;-0.683;4.939;65.854;7.195
1,72753E+12;2024-09-28T16.23.19.848;3.170;0.826;0.138;-0.664;4.085;86.768;7.683
1,72753E+12;2024-09-28T16.23.19.858;3.180;0.874;0.143;-0.662;2.134;120.061;8.963
1,72753E+12;2024-09-28T16.23.19.868;3.190;0.951;0.150;-0.664;-0.610;167.988;12.073
1,72753E+12;2024-09-28T16.23.19.878;3.200;1.033;0.152;-0.653;-3.598;228.171;16.829
1,72753E+12;2024-09-28T16.23.19.888;3.210;1.093;0.138;-0.621;-5.488;290.610;24.024
1,72753E+12;2024-09-28T16.23.19.898;3.220;1.086;0.125;-0.589;-5.854;345.488;33.598
1,72753E+12;2024-09-28T16.23.19.908;3.230;1.050;0.120;-0.559;-4.512;384.634;43.598
1,72753E+12;2024-09-28T16.23.19.918;3.240;1.037;0.118;-0.510;-2.561;406.402;51.524
1,72753E+12;2024-09-28T16.23.19.928;3.250;1.046;0.117;-0.449;-0.366;413.963;55.183
1,72753E+12;2024-09-28T16.23.19.938;3.260;1.051;0.113;-0.389;2.195;409.634;55.061
1,72753E+12;2024-09-28T16.23.19.948;3.270;1.024;0.099;-0.322;4.695;393.415;53.110
1,72753E+12;2024-09-28T16.23.19.958;3.280;0.993;0.093;-0.249;7.012;366.768;48.171
1,72753E+12;2024-09-28T16.23.19.968;3.290;0.975;0.089;-0.184;9.573;335.000;41.646
1,72753E+12;2024-09-28T16.23.19.978;3.300;0.932;0.080;-0.132;11.037;304.695;35.488
1,72753E+12;2024-09-28T16.23.19.988;3.310;0.904;0.082;-0.087;10.793;282.561;31.585
1,72753E+12;2024-09-28T16.23.19.998;3.320;0.938;0.068;-0.020;10.549;270.366;30.427
1,72753E+12;2024-09-28T16.23.20.008;3.330;0.957;0.062;0.047;10.915;268.476;30.000
1,72753E+12;2024-09-28T16.23.20.018;3.340;0.964;0.072;0.089;10.549;276.098;29.268
1,72753E+12;2024-09-28T16.23.20.028;3.350;1.000;0.070;0.130;8.780;290.793;28.720
1,72753E+12;2024-09-28T16.23.20.038;3.360;1.001;0.064;0.165;5.732;313.720;28.354
1,72753E+12;2024-09-28T16.23.20.048;3.370;0.980;0.065;0.191;0.793;340.061;30.122
1,72753E+12;2024-09-28T16.23.20.058;3.380;0.962;0.054;0.237;-3.902;361.402;33.476
1,72753E+12;2024-09-28T16.23.20.068;3.390;0.914;0.041;0.298;-6.402;376.524;34.512
1,72753E+12;2024-09-28T16.23.20.078;3.400;0.869;0.025;0.361;-6.159;383.841;33.841
1,72753E+12;2024-09-28T16.23.20.088;3.410;0.835;0.001;0.430;-2.744;390.061;32.317
1,72753E+12;2024-09-28T16.23.20.098;3.420;0.819;-0.013;0.480;2.378;396.524;30.122
1,72753E+12;2024-09-28T16.23.20.108;3.430;0.781;-0.024;0.523;6.280;404.024;28.841
1,72753E+12;2024-09-28T16.23.20.118;3.440;0.723;-0.028;0.566;8.720;406.829;30.366
1,72753E+12;2024-09-28T16.23.20.128;3.450;0.648;-0.019;0.617;12.134;401.402;31.768
1,72753E+12;2024-09-28T16.23.20.138;3.460;0.592;-0.012;0.673;14.390;391.585;30.915
1,72753E+12;2024-09-28T16.23.20.148;3.470;0.564;-0.007;0.719;13.902;381.341;28.049
1,72753E+12;2024-09-28T16.23.20.158;3.480;0.525;-0.016;0.772;10.976;375.732;24.878
1,72753E+12;2024-09-28T16.23.20.168;3.490;0.447;-0.009;0.806;2.927;358.841;23.780
1,72753E+12;2024-09-28T16.23.20.178;3.500;0.296;-0.009;0.857;-1.951;324.939;22.378
1,72753E+12;2024-09-28T16.23.20.188;3.510;0.183;-0.024;0.930;-1.768;288.110;19.878
1,72753E+12;2024-09-28T16.23.20.198;3.520;0.195;-0.014;0.962;-5.061;255.488;17.439
1,72753E+12;2024-09-28T16.23.20.208;3.530;0.144;-0.032;0.988;-8.476;217.744;15.732
1,72753E+12;2024-09-28T16.23.20.218;3.540;0.012;-0.039;1.020;-7.317;176.646;13.476
1,72753E+12;2024-09-28T16.23.20.228;3.550;-0.016;-0.032;1.032;-7.195;143.049;13.476
1,72753E+12;2024-09-28T16.23.20.238;3.560;0.029;-0.025;1.042;-9.146;120.183;14.268
1,72753E+12;2024-09-28T16.23.20.248;3.570;0.052;-0.018;1.056;-11.402;106.098;12.195
1,72753E+12;2024-09-28T16.23.20.258;3.580;0.036;-0.016;1.059;-13.476;93.659;10.366
1,72753E+12;2024-09-28T16.23.20.268;3.590;-0.007;-0.016;1.042;-13.841;77.256;10.427
1,72753E+12;2024-09-28T16.23.20.278;3.600;-0.045;-0.014;1.020;-13.171;57.317;10.366
1,72753E+12;2024-09-28T16.23.20.288;3.610;-0.057;-0.013;0.998;-12.256;38.171;9.451
1,72753E+12;2024-09-28T16.23.20.298;3.620;-0.046;-0.016;0.976;-10.732;23.171;8.659
1,72753E+12;2024-09-28T16.23.20.308;3.630;-0.026;-0.018;0.963;-9.329;10.976;8.659
1,72753E+12;2024-09-28T16.23.20.318;3.640;-0.022;-0.018;0.952;-7.317;0.549;7.500
1,72753E+12;2024-09-28T16.23.20.328;3.650;-0.014;-0.021;0.943;-5.061;-6.463;5.183
1,72753E+12;2024-09-28T16.23.20.338;3.660;-0.001;-0.021;0.930;-2.866;-8.293;3.232
1,72753E+12;2024-09-28T16.23.20.348;3.670;0.019;-0.026;0.921;-1.220;-6.890;2.744
1,72753E+12;2024-09-28T16.23.20.358;3.680;0.032;-0.029;0.929;0.305;-4.939;1.890
1,72753E+12;2024-09-28T16.23.20.368;3.690;0.028;-0.034;0.941;1.220;-3.354;0.915
1,72753E+12;2024-09-28T16.23.20.378;3.700;0.021;-0.035;0.948;2.256;-3.354;0.976
1,72753E+12;2024-09-28T16.23.20.388;3.710;0.027;-0.042;0.955;3.537;-3.537;0.671
1,72753E+12;2024-09-28T16.23.20.398;3.720;0.034;-0.046;0.970;4.451;-4.329;-0.305
1,72753E+12;2024-09-28T16.23.20.408;3.730;0.022;-0.049;0.979;5.732;-6.646;-1.098
1,72753E+12;2024-09-28T16.23.20.418;3.740;0.018;-0.052;0.987;6.585;-8.780;-1.220
1,72753E+12;2024-09-28T16.23.20.428;3.750;0.031;-0.051;0.995;7.012;-9.329;-1.524
1,72753E+12;2024-09-28T16.23.20.438;3.760;0.049;-0.047;1.004;6.890;-7.134;-2.073
1,72753E+12;2024-09-28T16.23.20.448;3.770;0.066;-0.041;1.011;6.341;-3.841;-2.134
1,72753E+12;2024-09-28T16.23.20.458;3.780;0.068;-0.037;1.011;5.122;-2.256;-2.317
1,72753E+12;2024-09-28T16.23.20.468;3.790;0.053;-0.032;1.006;3.963;-3.171;-2.683
1,72753E+12;2024-09-28T16.23.20.478;3.800;0.049;-0.031;1.003;2.805;-6.098;-2.439
1,72753E+12;2024-09-28T16.23.20.488;3.810;0.050;-0.027;1.005;2.012;-10.610;-2.073
1,72753E+12;2024-09-28T16.23.20.498;3.820;0.048;-0.030;1.008;1.646;-16.524;-2.256
1,72753E+12;2024-09-28T16.23.20.508;3.830;0.044;-0.034;1.004;2.134;-24.695;-2.195
1,72753E+12;2024-09-28T16.23.20.518;3.840;0.034;-0.036;0.996;2.927;-35.854;-2.195
1,72753E+12;2024-09-28T16.23.20.528;3.850;0.021;-0.035;0.985;4.207;-52.012;-2.134
1,72753E+12;2024-09-28T16.23.20.538;3.860;-0.001;-0.036;0.976;6.829;-72.195;-1.890
1,72753E+12;2024-09-28T16.23.20.548;3.870;0.014;-0.034;0.964;9.451;-90.061;-2.134
1,72753E+12;2024-09-28T16.23.20.558;3.880;0.062;-0.027;0.954;10.122;-104.573;-3.476
1,72753E+12;2024-09-28T16.23.20.568;3.890;0.074;-0.025;0.950;10.915;-119.268;-5.549
1,72753E+12;2024-09-28T16.23.20.578;3.900;0.065;-0.025;0.947;11.768;-139.695;-6.646
1,72753E+12;2024-09-28T16.23.20.588;3.910;0.049;-0.023;0.939;13.232;-170.854;-6.646
1,72753E+12;2024-09-28T16.23.20.598;3.920;0.026;-0.025;0.921;16.159;-211.098;-7.073
1,72753E+12;2024-09-28T16.23.20.608;3.930;0.039;-0.032;0.909;17.744;-265.793;-7.500
1,72753E+12;2024-09-28T16.23.20.618;3.940;0.026;-0.031;0.882;21.463;-336.159;-8.963
1,72753E+12;2024-09-28T16.23.20.628;3.950;0.045;-0.011;0.836;26.220;-399.878;-16.829
1,72753E+12;2024-09-28T16.23.20.638;3.960;0.190;0.006;0.784;25.366;-440.244;-21.951
1,72753E+12;2024-09-28T16.23.20.648;3.970;0.389;0.009;0.739;21.402;-462.256;-22.439
1,72753E+12;2024-09-28T16.23.20.658;3.980;0.513;0.015;0.698;17.073;-482.500;-24.024
1,72753E+12;2024-09-28T16.23.20.668;3.990;0.529;0.013;0.663;14.939;-510.000;-26.585
1,72753E+12;2024-09-28T16.23.20.678;4.000;0.555;0.012;0.607;14.634;-550.488;-27.988
1,72753E+12;2024-09-28T16.23.20.688;4.010;0.619;0.028;0.524;14.817;-597.744;-31.341
1,72753E+12;2024-09-28T16.23.20.698;4.020;0.693;0.040;0.420;15.305;-644.024;-37.988
1,72753E+12;2024-09-28T16.23.20.708;4.030;0.768;0.052;0.288;14.817;-684.268;-43.354
1,72753E+12;2024-09-28T16.23.20.718;4.040;0.844;0.088;0.144;11.890;-703.476;-48.598
1,72753E+12;2024-09-28T16.23.20.728;4.050;0.978;0.109;0.011;8.354;-702.927;-49.512
1,72753E+12;2024-09-28T16.23.20.738;4.060;1.048;0.090;-0.091;3.780;-688.537;-45.488
1,72753E+12;2024-09-28T16.23.20.748;4.070;1.051;0.128;-0.204;-2.256;-654.329;-44.207
1,72753E+12;2024-09-28T16.23.20.758;4.080;1.146;0.143;-0.303;-9.024;-602.927;-41.037
1,72753E+12;2024-09-28T16.23.20.768;4.090;1.219;0.144;-0.369;-16.951;-529.207;-33.598
1,72753E+12;2024-09-28T16.23.20.778;4.100;1.263;0.141;-0.410;-24.085;-440.854;-24.024
1,72753E+12;2024-09-28T16.23.20.788;4.110;1.277;0.140;-0.427;-31.220;-344.512;-13.659
1,72753E+12;2024-09-28T16.23.20.798;4.120;1.270;0.130;-0.427;-36.463;-250.854;-1.646
1,72753E+12;2024-09-28T16.23.20.808;4.130;1.209;0.093;-0.426;-37.317;-185.732;11.220
1,72753E+12;2024-09-28T16.23.20.818;4.140;0.996;0.076;-0.461;-34.939;-161.037;19.878
1,72753E+12;2024-09-28T16.23.20.828;4.150;0.812;0.080;-0.517;-30.732;-174.390;20.793
1,72753E+12;2024-09-28T16.23.20.838;4.160;0.749;0.087;-0.571;-27.317;-209.390;15.915
1,72753E+12;2024-09-28T16.23.20.848;4.170;0.770;0.107;-0.630;-25.305;-246.159;4.939
1,72753E+12;2024-09-28T16.23.20.858;4.180;0.817;0.122;-0.692;-24.878;-269.390;-9.268
1,72753E+12;2024-09-28T16.23.20.868;4.190;0.852;0.131;-0.742;-25.610;-271.707;-21.341
1,72753E+12;2024-09-28T16.23.20.878;4.200;0.860;0.131;-0.761;-25.671;-250.183;-26.890
1,72753E+12;2024-09-28T16.23.20.888;4.210;0.849;0.121;-0.773;-24.878;-206.890;-24.878
1,72753E+12;2024-09-28T16.23.20.898;4.220;0.862;0.117;-0.772;-22.073;-150.366;-17.500
1,72753E+12;2024-09-28T16.23.20.908;4.230;0.891;0.116;-0.765;-17.805;-89.329;-7.988
1,72753E+12;2024-09-28T16.23.20.918;4.240;0.880;0.116;-0.768;-14.146;-30.244;1.524
1,72753E+12;2024-09-28T16.23.20.928;4.250;0.849;0.125;-0.794;-12.073;20.549;9.756
1,72753E+12;2024-09-28T16.23.20.938;4.260;0.814;0.130;-0.815;-11.280;58.963;15.854
1,72753E+12;2024-09-28T16.23.20.948;4.270;0.777;0.130;-0.820;-10.488;79.695;19.329
1,72753E+12;2024-09-28T16.23.20.958;4.280;0.719;0.125;-0.817;-9.451;81.524;19.512
1,72753E+12;2024-09-28T16.23.20.968;4.290;0.681;0.130;-0.809;-7.988;66.890;17.195
