epoc (ms);timestamp (+0300);elapsed (s);acc_x;acc_y;acc_z;gyr_x;gyr_y;gyr_z
1,72753E+12;2024-09-28T16.27.12.657;0.000;0.730;0.167;-0.834;-28.415;-130.793;-6.646
1,72753E+12;2024-09-28T16.27.12.667;0.010;0.700;0.166;-0.854;-27.866;-130.488;-6.890
1,72753E+12;2024-09-28T16.27.12.677;0.020;0.695;0.174;-0.877;-24.939;-125.854;-7.073
1,72753E+12;2024-09-28T16.27.12.687;0.030;0.745;0.183;-0.896;-20.549;-114.634;-6.768
1,72753E+12;2024-09-28T16.27.12.697;0.040;0.780;0.189;-0.909;-15.915;-94.146;-5.366
1,72753E+12;2024-09-28T16.27.12.707;0.050;0.773;0.190;-0.912;-11.341;-65.305;-3.293
1,72753E+12;2024-09-28T16.27.12.717;0.060;0.724;0.190;-0.918;-7.012;-35.671;-0.549
1,72753E+12;2024-09-28T16.27.12.727;0.070;0.675;0.190;-0.921;-3.720;-11.768;2.561
1,72753E+12;2024-09-28T16.27.12.737;0.080;0.648;0.189;-0.916;-1.341;4.817;5.000
1,72753E+12;2024-09-28T16.27.12.747;0.090;0.612;0.187;-0.899;1.280;14.146;6.646
1,72753E+12;2024-09-28T16.27.12.757;0.100;0.594;0.188;-0.877;3.720;17.012;7.622
1,72753E+12;2024-09-28T16.27.12.767;0.110;0.620;0.187;-0.856;5.183;17.073;7.256
1,72753E+12;2024-09-28T16.27.12.777;0.120;0.652;0.183;-0.836;5.976;19.878;6.220
1,72753E+12;2024-09-28T16.27.12.787;0.130;0.656;0.181;-0.819;6.585;27.073;5.793
1,72753E+12;2024-09-28T16.27.12.797;0.140;0.667;0.177;-0.802;6.341;38.049;6.341
1,72753E+12;2024-09-28T16.27.12.807;0.150;0.712;0.181;-0.793;4.817;53.902;7.561
1,72753E+12;2024-09-28T16.27.12.817;0.160;0.777;0.189;-0.799;2.378;78.415;9.512
1,72753E+12;2024-09-28T16.27.12.827;0.170;0.854;0.192;-0.802;-1.524;116.829;12.317
1,72753E+12;2024-09-28T16.27.12.837;0.180;0.910;0.194;-0.801;-6.098;166.829;16.280
1,72753E+12;2024-09-28T16.27.12.847;0.190;0.978;0.193;-0.806;-11.159;228.049;22.317
1,72753E+12;2024-09-28T16.27.12.857;0.200;1.040;0.183;-0.782;-15.732;296.341;30.366
1,72753E+12;2024-09-28T16.27.12.867;0.210;1.050;0.168;-0.732;-18.110;362.622;40.732
1,72753E+12;2024-09-28T16.27.12.877;0.220;1.051;0.169;-0.687;-18.293;419.634;51.159
1,72753E+12;2024-09-28T16.27.12.887;0.230;1.072;0.168;-0.632;-17.683;465.244;60.915
1,72753E+12;2024-09-28T16.27.12.897;0.240;1.114;0.165;-0.570;-17.256;501.341;69.817
1,72753E+12;2024-09-28T16.27.12.907;0.250;1.156;0.177;-0.516;-17.317;533.049;76.463
1,72753E+12;2024-09-28T16.27.12.917;0.260;1.219;0.179;-0.440;-19.329;569.329;81.159
1,72753E+12;2024-09-28T16.27.12.927;0.270;1.259;0.174;-0.376;-22.195;610.671;86.159
1,72753E+12;2024-09-28T16.27.12.937;0.280;1.239;0.169;-0.320;-25.793;658.293;91.098
1,72753E+12;2024-09-28T16.27.12.947;0.290;1.133;0.153;-0.269;-31.524;701.524;99.085
1,72753E+12;2024-09-28T16.27.12.957;0.300;0.978;0.161;-0.191;-39.451;726.402;108.902
1,72753E+12;2024-09-28T16.27.12.967;0.310;0.889;0.141;-0.075;-47.195;730.183;112.927
1,72753E+12;2024-09-28T16.27.12.977;0.320;0.786;0.085;0.058;-51.402;714.512;112.561
1,72753E+12;2024-09-28T16.27.12.987;0.330;0.642;0.043;0.199;-51.159;681.159;109.634
1,72753E+12;2024-09-28T16.27.12.997;0.340;0.571;0.010;0.324;-45.610;636.037;106.341
1,72753E+12;2024-09-28T16.27.13.007;0.350;0.569;-0.027;0.425;-35.183;591.585;103.659
1,72753E+12;2024-09-28T16.27.13.017;0.360;0.534;-0.047;0.505;-23.476;551.159;99.512
1,72753E+12;2024-09-28T16.27.13.027;0.370;0.498;-0.056;0.561;-12.439;512.256;91.341
1,72753E+12;2024-09-28T16.27.13.037;0.380;0.410;-0.075;0.579;-3.598;473.171;79.024
1,72753E+12;2024-09-28T16.27.13.047;0.390;0.160;-0.076;0.618;-0.366;414.634;65.976
1,72753E+12;2024-09-28T16.27.13.057;0.400;0.058;-0.070;0.682;1.768;342.683;55.488
1,72753E+12;2024-09-28T16.27.13.067;0.410;0.108;-0.078;0.759;1.463;277.622;49.695
1,72753E+12;2024-09-28T16.27.13.077;0.420;0.136;-0.095;0.826;-0.427;232.683;44.634
1,72753E+12;2024-09-28T16.27.13.087;0.430;0.098;-0.115;0.903;-1.037;200.122;41.524
1,72753E+12;2024-09-28T16.27.13.097;0.440;0.034;-0.130;0.972;1.341;166.829;38.171
1,72753E+12;2024-09-28T16.27.13.107;0.450;-0.002;-0.136;1.003;5.122;130.427;32.805
1,72753E+12;2024-09-28T16.27.13.117;0.460;-0.025;-0.130;1.023;9.756;94.085;27.622
1,72753E+12;2024-09-28T16.27.13.127;0.470;-0.045;-0.117;1.032;13.598;59.634;22.622
1,72753E+12;2024-09-28T16.27.13.137;0.480;-0.026;-0.107;1.037;15.671;32.317;17.256
1,72753E+12;2024-09-28T16.27.13.147;0.490;-0.017;-0.099;1.045;15.427;13.537;13.659
1,72753E+12;2024-09-28T16.27.13.157;0.500;-0.018;-0.089;1.051;14.146;-0.183;11.220
1,72753E+12;2024-09-28T16.27.13.167;0.510;0.014;-0.084;1.053;12.561;-9.146;9.268
1,72753E+12;2024-09-28T16.27.13.177;0.520;0.040;-0.076;1.050;10.061;-12.073;7.378
1,72753E+12;2024-09-28T16.27.13.187;0.530;0.041;-0.068;1.033;7.256;-9.329;4.817
1,72753E+12;2024-09-28T16.27.13.197;0.540;0.043;-0.064;1.024;3.841;-5.610;3.598
1,72753E+12;2024-09-28T16.27.13.207;0.550;0.049;-0.062;1.015;1.098;-3.476;2.012
1,72753E+12;2024-09-28T16.27.13.217;0.560;0.048;-0.064;1.000;-1.098;-3.415;-0.427
1,72753E+12;2024-09-28T16.27.13.227;0.570;0.036;-0.071;0.995;-2.439;-7.744;-2.744
1,72753E+12;2024-09-28T16.27.13.237;0.580;0.056;-0.075;0.995;-2.134;-14.634;-5.183
1,72753E+12;2024-09-28T16.27.13.247;0.590;0.114;-0.076;0.987;-0.671;-15.854;-6.951
1,72753E+12;2024-09-28T16.27.13.257;0.600;0.138;-0.079;0.981;-0.976;-9.634;-7.683
1,72753E+12;2024-09-28T16.27.13.267;0.610;0.127;-0.080;0.977;-1.707;-3.049;-8.232
1,72753E+12;2024-09-28T16.27.13.277;0.620;0.108;-0.081;0.965;-1.402;-2.500;-8.049
1,72753E+12;2024-09-28T16.27.13.287;0.630;0.108;-0.084;0.953;-0.244;-8.415;-7.927
1,72753E+12;2024-09-28T16.27.13.297;0.640;0.125;-0.083;0.953;1.159;-17.500;-8.354
1,72753E+12;2024-09-28T16.27.13.307;0.650;0.142;-0.083;0.956;2.988;-25.488;-9.146
1,72753E+12;2024-09-28T16.27.13.317;0.660;0.153;-0.083;0.959;5.122;-31.890;-9.268
1,72753E+12;2024-09-28T16.27.13.327;0.670;0.186;-0.079;0.960;6.585;-35.244;-9.329
1,72753E+12;2024-09-28T16.27.13.337;0.680;0.201;-0.079;0.959;6.585;-34.878;-9.756
1,72753E+12;2024-09-28T16.27.13.347;0.690;0.175;-0.082;0.957;6.524;-35.183;-9.878
1,72753E+12;2024-09-28T16.27.13.357;0.700;0.162;-0.084;0.962;7.134;-40.915;-8.902
1,72753E+12;2024-09-28T16.27.13.367;0.710;0.161;-0.087;0.960;8.232;-53.232;-8.841
1,72753E+12;2024-09-28T16.27.13.377;0.720;0.157;-0.086;0.962;9.634;-72.012;-9.817
1,72753E+12;2024-09-28T16.27.13.387;0.730;0.141;-0.088;0.959;11.890;-97.073;-11.768
1,72753E+12;2024-09-28T16.27.13.397;0.740;0.117;-0.094;0.943;14.695;-129.695;-14.146
1,72753E+12;2024-09-28T16.27.13.407;0.750;0.087;-0.089;0.925;17.317;-175.732;-16.220
1,72753E+12;2024-09-28T16.27.13.417;0.760;0.131;-0.075;0.898;22.134;-230.122;-20.000
1,72753E+12;2024-09-28T16.27.13.427;0.770;0.199;-0.060;0.870;24.817;-282.134;-25.610
1,72753E+12;2024-09-28T16.27.13.437;0.780;0.241;-0.051;0.842;26.402;-334.573;-29.695
1,72753E+12;2024-09-28T16.27.13.447;0.790;0.293;-0.054;0.779;29.207;-387.256;-36.220
1,72753E+12;2024-09-28T16.27.13.457;0.800;0.302;-0.035;0.712;29.878;-447.317;-41.829
1,72753E+12;2024-09-28T16.27.13.467;0.810;0.360;-0.006;0.653;30.915;-514.756;-48.293
1,72753E+12;2024-09-28T16.27.13.477;0.820;0.544;0.016;0.590;32.073;-572.805;-58.415
1,72753E+12;2024-09-28T16.27.13.487;0.830;0.701;0.020;0.525;33.232;-606.037;-69.146
1,72753E+12;2024-09-28T16.27.13.497;0.840;0.773;0.028;0.445;34.695;-617.317;-75.061
1,72753E+12;2024-09-28T16.27.13.507;0.850;0.778;0.033;0.345;36.402;-621.829;-76.341
1,72753E+12;2024-09-28T16.27.13.517;0.860;0.761;0.062;0.222;37.622;-632.561;-74.207
1,72753E+12;2024-09-28T16.27.13.527;0.870;0.793;0.103;0.082;36.585;-650.122;-71.585
1,72753E+12;2024-09-28T16.27.13.537;0.880;0.881;0.128;-0.035;33.659;-663.049;-71.707
1,72753E+12;2024-09-28T16.27.13.547;0.890;0.961;0.141;-0.140;29.939;-659.695;-71.524
1,72753E+12;2024-09-28T16.27.13.557;0.900;1.045;0.152;-0.230;24.939;-634.024;-68.415
1,72753E+12;2024-09-28T16.27.13.567;0.910;1.104;0.163;-0.304;17.988;-587.805;-63.110
1,72753E+12;2024-09-28T16.27.13.577;0.920;1.163;0.161;-0.359;9.268;-522.012;-56.524
1,72753E+12;2024-09-28T16.27.13.587;0.930;1.211;0.158;-0.400;-0.122;-438.110;-48.171
1,72753E+12;2024-09-28T16.27.13.597;0.940;1.205;0.159;-0.429;-9.146;-345.915;-37.805
1,72753E+12;2024-09-28T16.27.13.607;0.950;1.117;0.145;-0.466;-16.646;-263.415;-26.524
1,72753E+12;2024-09-28T16.27.13.617;0.960;0.943;0.144;-0.523;-20.976;-210.000;-15.976
1,72753E+12;2024-09-28T16.27.13.627;0.970;0.808;0.151;-0.575;-23.963;-191.707;-9.024
1,72753E+12;2024-09-28T16.27.13.637;0.980;0.674;0.147;-0.630;-24.878;-211.829;-3.963
1,72753E+12;2024-09-28T16.27.13.647;0.990;0.571;0.177;-0.712;-24.207;-264.695;-2.134
1,72753E+12;2024-09-28T16.27.13.657;1.000;0.694;0.203;-0.794;-24.329;-320.122;-8.902
1,72753E+12;2024-09-28T16.27.13.667;1.010;0.872;0.197;-0.855;-25.061;-348.537;-18.720
1,72753E+12;2024-09-28T16.27.13.677;1.020;0.938;0.182;-0.873;-25.183;-338.232;-25.732
1,72753E+12;2024-09-28T16.27.13.687;1.030;0.904;0.158;-0.868;-22.561;-299.268;-28.415
1,72753E+12;2024-09-28T16.27.13.697;1.040;0.786;0.142;-0.860;-15.915;-252.073;-26.037
1,72753E+12;2024-09-28T16.27.13.707;1.050;0.622;0.141;-0.881;-6.463;-217.439;-18.049
1,72753E+12;2024-09-28T16.27.13.717;1.060;0.494;0.151;-0.919;3.049;-205.305;-9.024
1,72753E+12;2024-09-28T16.27.13.727;1.070;0.505;0.177;-0.962;9.207;-204.695;-3.415
1,72753E+12;2024-09-28T16.27.13.737;1.080;0.604;0.192;-0.994;10.610;-195.976;-1.341
1,72753E+12;2024-09-28T16.27.13.747;1.090;0.659;0.191;-1.010;9.512;-171.524;-2.439
1,72753E+12;2024-09-28T16.27.13.757;1.100;0.652;0.194;-1.011;7.317;-135.671;-5.244
1,72753E+12;2024-09-28T16.27.13.767;1.110;0.620;0.191;-1.003;4.817;-97.439;-7.195
1,72753E+12;2024-09-28T16.27.13.777;1.120;0.571;0.186;-0.990;2.195;-63.354;-7.622
1,72753E+12;2024-09-28T16.27.13.787;1.130;0.508;0.178;-0.973;0.366;-37.378;-6.951
1,72753E+12;2024-09-28T16.27.13.797;1.140;0.481;0.172;-0.949;0.000;-18.293;-5.732
1,72753E+12;2024-09-28T16.27.13.807;1.150;0.501;0.165;-0.921;1.280;-3.110;-4.939
1,72753E+12;2024-09-28T16.27.13.817;1.160;0.491;0.164;-0.912;3.476;7.683;-3.902
1,72753E+12;2024-09-28T16.27.13.827;1.170;0.486;0.174;-0.914;4.756;14.817;-3.415
1,72753E+12;2024-09-28T16.27.13.837;1.180;0.522;0.178;-0.912;4.939;21.768;-3.415
1,72753E+12;2024-09-28T16.27.13.847;1.190;0.553;0.177;-0.898;4.268;32.500;-2.622
1,72753E+12;2024-09-28T16.27.13.857;1.200;0.560;0.180;-0.892;3.415;46.951;-1.585
1,72753E+12;2024-09-28T16.27.13.867;1.210;0.580;0.186;-0.891;1.951;62.805;0.244
1,72753E+12;2024-09-28T16.27.13.877;1.220;0.638;0.189;-0.888;-0.549;81.585;2.500
1,72753E+12;2024-09-28T16.27.13.887;1.230;0.705;0.194;-0.896;-4.024;107.561;5.000
1,72753E+12;2024-09-28T16.27.13.897;1.240;0.762;0.200;-0.902;-7.805;142.439;8.293
1,72753E+12;2024-09-28T16.27.13.907;1.250;0.814;0.204;-0.907;-12.073;184.451;12.500
1,72753E+12;2024-09-28T16.27.13.917;1.260;0.868;0.210;-0.905;-16.829;233.537;17.622
1,72753E+12;2024-09-28T16.27.13.927;1.270;0.915;0.212;-0.889;-21.829;286.951;24.390
1,72753E+12;2024-09-28T16.27.13.937;1.280;0.946;0.209;-0.870;-26.707;340.427;32.195
1,72753E+12;2024-09-28T16.27.13.947;1.290;0.981;0.207;-0.835;-31.646;391.280;40.854
1,72753E+12;2024-09-28T16.27.13.957;1.300;1.014;0.208;-0.797;-34.878;437.439;49.939
1,72753E+12;2024-09-28T16.27.13.967;1.310;1.088;0.211;-0.732;-37.622;483.232;58.110
1,72753E+12;2024-09-28T16.27.13.977;1.320;1.178;0.195;-0.662;-39.573;533.293;65.488
1,72753E+12;2024-09-28T16.27.13.987;1.330;1.216;0.185;-0.601;-39.512;587.317;74.207
1,72753E+12;2024-09-28T16.27.13.997;1.340;1.214;0.178;-0.537;-38.902;641.768;84.695
1,72753E+12;2024-09-28T16.27.14.007;1.350;1.203;0.186;-0.469;-38.841;693.171;95.488
1,72753E+12;2024-09-28T16.27.14.017;1.360;1.216;0.195;-0.406;-41.524;742.256;107.256
1,72753E+12;2024-09-28T16.27.14.027;1.370;1.180;0.190;-0.356;-47.134;785.183;118.659
1,72753E+12;2024-09-28T16.27.14.037;1.380;1.012;0.201;-0.285;-54.634;807.134;125.671
1,72753E+12;2024-09-28T16.27.14.047;1.390;0.822;0.182;-0.162;-63.902;799.390;126.280
1,72753E+12;2024-09-28T16.27.14.057;1.400;0.668;0.119;-0.005;-71.159;762.500;122.622
1,72753E+12;2024-09-28T16.27.14.067;1.410;0.556;0.056;0.173;-72.256;702.134;117.317
1,72753E+12;2024-09-28T16.27.14.077;1.420;0.509;-0.013;0.341;-64.939;630.549;110.000
1,72753E+12;2024-09-28T16.27.14.087;1.430;0.460;-0.052;0.465;-50.488;555.244;102.317
1,72753E+12;2024-09-28T16.27.14.097;1.440;0.423;-0.080;0.555;-32.622;482.561;93.659
1,72753E+12;2024-09-28T16.27.14.107;1.450;0.394;-0.097;0.624;-15.366;414.451;84.085
1,72753E+12;2024-09-28T16.27.14.117;1.460;0.380;-0.094;0.661;0.183;354.573;73.415
1,72753E+12;2024-09-28T16.27.14.127;1.470;0.316;-0.085;0.690;10.976;297.988;61.159
1,72753E+12;2024-09-28T16.27.14.137;1.480;0.255;-0.072;0.701;17.561;243.720;48.476
1,72753E+12;2024-09-28T16.27.14.147;1.490;0.209;-0.063;0.714;17.378;192.805;38.780
1,72753E+12;2024-09-28T16.27.14.157;1.500;0.214;-0.070;0.763;13.293;148.720;32.317
1,72753E+12;2024-09-28T16.27.14.167;1.510;0.224;-0.078;0.831;9.390;115.976;27.927
1,72753E+12;2024-09-28T16.27.14.177;1.520;0.208;-0.103;0.902;7.683;95.915;23.720
1,72753E+12;2024-09-28T16.27.14.187;1.530;0.221;-0.119;0.960;8.780;87.256;21.402
1,72753E+12;2024-09-28T16.27.14.197;1.540;0.224;-0.118;0.984;11.098;88.598;20.244
1,72753E+12;2024-09-28T16.27.14.207;1.550;0.170;-0.119;1.005;12.561;88.415;19.512
1,72753E+12;2024-09-28T16.27.14.217;1.560;0.110;-0.110;1.024;15.305;77.134;18.293
1,72753E+12;2024-09-28T16.27.14.227;1.570;0.101;-0.093;1.026;18.537;59.024;16.098
1,72753E+12;2024-09-28T16.27.14.237;1.580;0.117;-0.079;1.017;20.488;41.098;13.476
1,72753E+12;2024-09-28T16.27.14.247;1.590;0.123;-0.061;1.006;20.915;26.402;9.573
1,72753E+12;2024-09-28T16.27.14.257;1.600;0.129;-0.051;0.989;18.780;19.512;4.878
1,72753E+12;2024-09-28T16.27.14.267;1.610;0.134;-0.042;0.988;13.354;18.659;3.171
1,72753E+12;2024-09-28T16.27.14.277;1.620;0.130;-0.041;0.995;7.256;18.537;3.049
1,72753E+12;2024-09-28T16.27.14.287;1.630;0.120;-0.047;1.003;2.134;16.707;1.829
1,72753E+12;2024-09-28T16.27.14.297;1.640;0.126;-0.058;1.015;-1.585;12.561;0.610
1,72753E+12;2024-09-28T16.27.14.307;1.650;0.130;-0.065;1.015;-2.866;7.805;-1.585
1,72753E+12;2024-09-28T16.27.14.317;1.660;0.145;-0.069;1.002;-2.561;4.451;-4.207
1,72753E+12;2024-09-28T16.27.14.327;1.670;0.153;-0.069;0.988;-2.134;0.671;-5.793
1,72753E+12;2024-09-28T16.27.14.337;1.680;0.161;-0.064;0.976;-1.341;-5.061;-7.378
1,72753E+12;2024-09-28T16.27.14.347;1.690;0.188;-0.061;0.961;-0.122;-9.695;-8.415
1,72753E+12;2024-09-28T16.27.14.357;1.700;0.205;-0.063;0.948;0.366;-11.402;-8.476
1,72753E+12;2024-09-28T16.27.14.367;1.710;0.214;-0.062;0.946;-0.305;-11.829;-8.171
1,72753E+12;2024-09-28T16.27.14.377;1.720;0.212;-0.061;0.946;-0.183;-12.927;-7.744
1,72753E+12;2024-09-28T16.27.14.387;1.730;0.224;-0.065;0.945;0.854;-15.244;-7.134
1,72753E+12;2024-09-28T16.27.14.397;1.740;0.229;-0.068;0.944;1.829;-19.085;-6.890
1,72753E+12;2024-09-28T16.27.14.407;1.750;0.228;-0.072;0.944;2.744;-23.963;-7.439
1,72753E+12;2024-09-28T16.27.14.417;1.760;0.238;-0.072;0.948;3.963;-28.049;-7.744
1,72753E+12;2024-09-28T16.27.14.427;1.770;0.237;-0.073;0.950;5.305;-32.134;-7.134
1,72753E+12;2024-09-28T16.27.14.437;1.780;0.231;-0.075;0.948;6.951;-39.390;-6.707
1,72753E+12;2024-09-28T16.27.14.447;1.790;0.221;-0.078;0.947;8.476;-51.768;-6.890
1,72753E+12;2024-09-28T16.27.14.457;1.800;0.205;-0.079;0.944;10.061;-69.939;-7.500
1,72753E+12;2024-09-28T16.27.14.467;1.810;0.206;-0.079;0.933;12.073;-94.878;-8.415
1,72753E+12;2024-09-28T16.27.14.477;1.820;0.234;-0.069;0.917;13.902;-124.207;-10.427
1,72753E+12;2024-09-28T16.27.14.487;1.830;0.268;-0.060;0.908;15.732;-152.317;-13.293
1,72753E+12;2024-09-28T16.27.14.497;1.840;0.311;-0.052;0.903;17.317;-174.329;-15.549
1,72753E+12;2024-09-28T16.27.14.507;1.850;0.381;-0.041;0.894;18.293;-188.110;-15.854
1,72753E+12;2024-09-28T16.27.14.517;1.860;0.431;-0.034;0.875;18.720;-195.000;-15.732
1,72753E+12;2024-09-28T16.27.14.527;1.870;0.444;-0.036;0.850;18.537;-198.780;-16.463
1,72753E+12;2024-09-28T16.27.14.537;1.880;0.447;-0.035;0.829;17.622;-205.854;-15.549
1,72753E+12;2024-09-28T16.27.14.547;1.890;0.446;-0.030;0.803;16.951;-222.744;-13.537
1,72753E+12;2024-09-28T16.27.14.557;1.900;0.418;-0.036;0.780;17.134;-256.463;-13.110
1,72753E+12;2024-09-28T16.27.14.567;1.910;0.377;-0.041;0.742;20.122;-313.232;-15.244
1,72753E+12;2024-09-28T16.27.14.577;1.920;0.403;-0.021;0.679;25.427;-387.622;-21.707
1,72753E+12;2024-09-28T16.27.14.587;1.930;0.500;-0.018;0.598;31.829;-461.463;-32.073
1,72753E+12;2024-09-28T16.27.14.597;1.940;0.559;-0.006;0.505;38.232;-528.781;-40.915
1,72753E+12;2024-09-28T16.27.14.607;1.950;0.578;0.046;0.369;42.805;-595.732;-47.561
1,72753E+12;2024-09-28T16.27.14.617;1.960;0.694;0.075;0.234;44.756;-654.695;-58.537
1,72753E+12;2024-09-28T16.27.14.627;1.970;0.831;0.101;0.121;43.415;-694.024;-67.073
1,72753E+12;2024-09-28T16.27.14.637;1.980;0.891;0.099;0.019;41.280;-711.829;-71.341
1,72753E+12;2024-09-28T16.27.14.647;1.990;0.891;0.118;-0.103;39.573;-718.232;-71.463
1,72753E+12;2024-09-28T16.27.14.657;2.000;0.941;0.138;-0.226;36.098;-714.756;-68.598
1,72753E+12;2024-09-28T16.27.14.667;2.010;1.000;0.147;-0.329;31.890;-699.390;-65.000
1,72753E+12;2024-09-28T16.27.14.677;2.020;1.024;0.165;-0.425;25.610;-671.281;-59.817
1,72753E+12;2024-09-28T16.27.14.687;2.030;1.048;0.151;-0.500;18.293;-628.902;-54.085
1,72753E+12;2024-09-28T16.27.14.697;2.040;1.028;0.158;-0.573;9.573;-580.061;-45.488
1,72753E+12;2024-09-28T16.27.14.707;2.050;1.056;0.172;-0.629;-0.976;-525.305;-37.378
1,72753E+12;2024-09-28T16.27.14.717;2.060;1.106;0.177;-0.660;-11.159;-461.829;-32.500
1,72753E+12;2024-09-28T16.27.14.727;2.070;1.125;0.178;-0.701;-20.976;-387.744;-26.829
1,72753E+12;2024-09-28T16.27.14.737;2.080;1.084;0.156;-0.724;-29.329;-307.195;-20.976
1,72753E+12;2024-09-28T16.27.14.747;2.090;0.974;0.146;-0.752;-35.305;-233.841;-14.024
1,72753E+12;2024-09-28T16.27.14.757;2.100;0.862;0.132;-0.775;-37.988;-176.037;-6.829
1,72753E+12;2024-09-28T16.27.14.767;2.110;0.727;0.134;-0.815;-37.012;-143.598;-0.244
1,72753E+12;2024-09-28T16.27.14.777;2.120;0.671;0.151;-0.852;-34.756;-130.976;3.902
1,72753E+12;2024-09-28T16.27.14.787;2.130;0.695;0.164;-0.885;-32.683;-127.073;4.939
1,72753E+12;2024-09-28T16.27.14.797;2.140;0.701;0.175;-0.917;-30.244;-122.561;4.756
1,72753E+12;2024-09-28T16.27.14.807;2.150;0.704;0.184;-0.938;-27.073;-113.232;3.293
1,72753E+12;2024-09-28T16.27.14.817;2.160;0.696;0.188;-0.945;-22.988;-99.573;1.768
1,72753E+12;2024-09-28T16.27.14.827;2.170;0.675;0.195;-0.959;-18.659;-84.085;1.098
1,72753E+12;2024-09-28T16.27.14.837;2.180;0.655;0.198;-0.969;-14.390;-65.976;1.524
1,72753E+12;2024-09-28T16.27.14.847;2.190;0.616;0.198;-0.973;-10.122;-47.195;3.780
1,72753E+12;2024-09-28T16.27.14.857;2.200;0.606;0.196;-0.963;-7.012;-28.841;7.012
1,72753E+12;2024-09-28T16.27.14.867;2.210;0.612;0.188;-0.942;-4.756;-11.037;9.451
1,72753E+12;2024-09-28T16.27.14.877;2.220;0.601;0.179;-0.921;-2.744;5.610;11.220
1,72753E+12;2024-09-28T16.27.14.887;2.230;0.606;0.178;-0.909;-0.854;21.159;12.073
1,72753E+12;2024-09-28T16.27.14.897;2.240;0.620;0.172;-0.885;1.098;37.256;12.500
1,72753E+12;2024-09-28T16.27.14.907;2.250;0.614;0.172;-0.871;2.744;52.927;13.476
1,72753E+12;2024-09-28T16.27.14.917;2.260;0.621;0.182;-0.867;2.988;67.317;14.207
1,72753E+12;2024-09-28T16.27.14.927;2.270;0.677;0.185;-0.866;1.463;84.939;15.793
1,72753E+12;2024-09-28T16.27.14.937;2.280;0.745;0.197;-0.856;-1.768;111.098;18.476
1,72753E+12;2024-09-28T16.27.14.947;2.290;0.839;0.203;-0.850;-6.341;149.756;22.317
1,72753E+12;2024-09-28T16.27.14.957;2.300;0.951;0.203;-0.845;-12.012;205.122;27.805
1,72753E+12;2024-09-28T16.27.14.967;2.310;1.046;0.192;-0.832;-17.195;274.634;34.024
1,72753E+12;2024-09-28T16.27.14.977;2.320;1.089;0.176;-0.799;-20.427;351.768;41.402
1,72753E+12;2024-09-28T16.27.14.987;2.330;1.068;0.159;-0.754;-21.220;425.610;51.341
1,72753E+12;2024-09-28T16.27.14.997;2.340;1.060;0.150;-0.688;-20.183;487.256;63.476
1,72753E+12;2024-09-28T16.27.15.007;2.350;1.106;0.141;-0.609;-17.317;536.768;76.159
1,72753E+12;2024-09-28T16.27.15.017;2.360;1.197;0.146;-0.532;-14.573;580.305;88.841
1,72753E+12;2024-09-28T16.27.15.027;2.370;1.298;0.158;-0.459;-13.110;624.268;98.963
1,72753E+12;2024-09-28T16.27.15.037;2.380;1.328;0.163;-0.424;-13.476;667.805;104.634
1,72753E+12;2024-09-28T16.27.15.047;2.390;1.244;0.181;-0.406;-17.256;707.378;108.963
1,72753E+12;2024-09-28T16.27.15.057;2.400;1.062;0.191;-0.377;-25.732;733.171;115.183
1,72753E+12;2024-09-28T16.27.15.067;2.410;0.895;0.198;-0.283;-40.244;737.195;122.317
1,72753E+12;2024-09-28T16.27.15.077;2.420;0.827;0.164;-0.127;-55.610;720.976;126.159
1,72753E+12;2024-09-28T16.27.15.087;2.430;0.785;0.110;0.039;-65.122;690.122;124.817
1,72753E+12;2024-09-28T16.27.15.097;2.440;0.715;0.039;0.208;-66.646;651.829;118.963
1,72753E+12;2024-09-28T16.27.15.107;2.450;0.658;-0.014;0.344;-58.049;610.244;114.024
1,72753E+12;2024-09-28T16.27.15.117;2.460;0.663;-0.053;0.420;-42.927;576.463;111.463
1,72753E+12;2024-09-28T16.27.15.127;2.470;0.625;-0.080;0.491;-26.829;548.476;108.232
1,72753E+12;2024-09-28T16.27.15.137;2.480;0.573;-0.096;0.538;-11.768;523.232;101.037
1,72753E+12;2024-09-28T16.27.15.147;2.490;0.505;-0.101;0.529;1.280;495.122;90.915
1,72753E+12;2024-09-28T16.27.15.157;2.500;0.315;-0.093;0.516;8.598;452.500;76.402
1,72753E+12;2024-09-28T16.27.15.167;2.510;0.141;-0.075;0.539;8.537;394.146;62.317
1,72753E+12;2024-09-28T16.27.15.177;2.520;0.093;-0.083;0.635;4.268;325.305;53.293
1,72753E+12;2024-09-28T16.27.15.187;2.530;0.102;-0.116;0.729;2.927;260.854;44.695
1,72753E+12;2024-09-28T16.27.15.197;2.540;0.055;-0.151;0.825;4.817;206.159;36.220
1,72753E+12;2024-09-28T16.27.15.207;2.550;0.022;-0.169;0.905;10.915;161.220;29.878
1,72753E+12;2024-09-28T16.27.15.217;2.560;0.041;-0.177;0.961;18.171;130.366;26.341
1,72753E+12;2024-09-28T16.27.15.227;2.570;0.057;-0.175;0.993;23.415;112.256;24.390
1,72753E+12;2024-09-28T16.27.15.237;2.580;0.034;-0.166;1.018;26.159;97.622;21.037
1,72753E+12;2024-09-28T16.27.15.247;2.590;-0.018;-0.153;1.018;29.268;81.585;16.220
1,72753E+12;2024-09-28T16.27.15.257;2.600;-0.090;-0.131;1.003;31.098;58.232;14.756
1,72753E+12;2024-09-28T16.27.15.267;2.610;-0.124;-0.108;1.002;30.732;26.037;13.415
1,72753E+12;2024-09-28T16.27.15.277;2.620;-0.068;-0.086;1.013;28.598;-4.634;11.402
1,72753E+12;2024-09-28T16.27.15.287;2.630;0.021;-0.065;1.035;26.037;-24.451;9.268
1,72753E+12;2024-09-28T16.27.15.297;2.640;0.097;-0.059;1.055;22.439;-26.098;5.854
1,72753E+12;2024-09-28T16.27.15.307;2.650;0.103;-0.051;1.060;16.707;-10.732;1.646
1,72753E+12;2024-09-28T16.27.15.317;2.660;0.072;-0.054;1.055;9.512;9.817;0.427
1,72753E+12;2024-09-28T16.27.15.327;2.670;0.041;-0.057;1.048;3.049;20.488;1.402
1,72753E+12;2024-09-28T16.27.15.337;2.680;-0.011;-0.066;1.042;-1.037;16.098;0.122
1,72753E+12;2024-09-28T16.27.15.347;2.690;-0.024;-0.074;1.034;-2.927;0.793;-1.951
1,72753E+12;2024-09-28T16.27.15.357;2.700;0.019;-0.074;1.018;-2.256;-17.195;-4.878
1,72753E+12;2024-09-28T16.27.15.367;2.710;0.073;-0.073;1.001;-0.976;-29.268;-7.683
1,72753E+12;2024-09-28T16.27.15.377;2.720;0.122;-0.066;0.984;0.366;-31.037;-9.024
1,72753E+12;2024-09-28T16.27.15.387;2.730;0.139;-0.065;0.968;-0.183;-25.244;-8.963
1,72753E+12;2024-09-28T16.27.15.397;2.740;0.136;-0.065;0.957;-1.220;-18.049;-8.110
1,72753E+12;2024-09-28T16.27.15.407;2.750;0.137;-0.068;0.953;-1.768;-11.951;-6.402
1,72753E+12;2024-09-28T16.27.15.417;2.760;0.138;-0.075;0.954;-1.463;-10.305;-4.634
1,72753E+12;2024-09-28T16.27.15.427;2.770;0.140;-0.082;0.959;-0.183;-12.500;-4.573
1,72753E+12;2024-09-28T16.27.15.437;2.780;0.152;-0.085;0.959;1.463;-14.573;-4.878
1,72753E+12;2024-09-28T16.27.15.447;2.790;0.177;-0.088;0.966;2.256;-12.927;-5.000
1,72753E+12;2024-09-28T16.27.15.457;2.800;0.177;-0.091;0.972;2.317;-8.537;-4.939
1,72753E+12;2024-09-28T16.27.15.467;2.810;0.146;-0.094;0.976;2.805;-7.073;-4.085
1,72753E+12;2024-09-28T16.27.15.477;2.820;0.134;-0.095;0.975;4.268;-11.646;-3.659
1,72753E+12;2024-09-28T16.27.15.487;2.830;0.138;-0.092;0.971;5.915;-19.085;-4.024
1,72753E+12;2024-09-28T16.27.15.497;2.840;0.139;-0.088;0.974;6.951;-25.976;-4.390
1,72753E+12;2024-09-28T16.27.15.507;2.850;0.145;-0.085;0.972;7.134;-32.378;-5.061
1,72753E+12;2024-09-28T16.27.15.517;2.860;0.130;-0.083;0.968;7.378;-41.220;-6.159
1,72753E+12;2024-09-28T16.27.15.527;2.870;0.097;-0.086;0.962;8.415;-56.098;-7.256
1,72753E+12;2024-09-28T16.27.15.537;2.880;0.084;-0.087;0.955;9.939;-78.415;-7.866
1,72753E+12;2024-09-28T16.27.15.547;2.890;0.092;-0.087;0.945;12.012;-106.890;-9.634
1,72753E+12;2024-09-28T16.27.15.557;2.900;0.076;-0.088;0.927;14.207;-142.317;-13.110
1,72753E+12;2024-09-28T16.27.15.567;2.910;0.047;-0.087;0.905;17.805;-190.488;-16.402
1,72753E+12;2024-09-28T16.27.15.577;2.920;0.083;-0.080;0.877;23.598;-247.622;-21.707
1,72753E+12;2024-09-28T16.27.15.587;2.930;0.173;-0.063;0.855;28.841;-301.159;-29.146
1,72753E+12;2024-09-28T16.27.15.597;2.940;0.260;-0.051;0.834;33.110;-343.110;-37.012
1,72753E+12;2024-09-28T16.27.15.607;2.950;0.329;-0.051;0.800;36.463;-375.671;-44.451
1,72753E+12;2024-09-28T16.27.15.617;2.960;0.302;-0.058;0.746;38.902;-418.659;-49.268
1,72753E+12;2024-09-28T16.27.15.627;2.970;0.214;-0.020;0.684;43.049;-492.683;-53.598
1,72753E+12;2024-09-28T16.27.15.637;2.980;0.272;0.026;0.583;48.049;-593.110;-62.195
1,72753E+12;2024-09-28T16.27.15.647;2.990;0.427;0.058;0.470;52.012;-693.902;-76.037
1,72753E+12;2024-09-28T16.27.15.657;3.000;0.568;0.083;0.329;54.573;-775.000;-90.732
1,72753E+12;2024-09-28T16.27.15.667;3.010;0.725;0.105;0.172;55.427;-825.549;-100.915
1,72753E+12;2024-09-28T16.27.15.677;3.020;0.860;0.131;0.023;54.756;-845.000;-105.366
1,72753E+12;2024-09-28T16.27.15.687;3.030;0.958;0.155;-0.117;51.463;-836.098;-103.780
1,72753E+12;2024-09-28T16.27.15.697;3.040;1.046;0.175;-0.249;47.988;-800.915;-98.049
1,72753E+12;2024-09-28T16.27.15.707;3.050;1.113;0.183;-0.362;44.878;-743.049;-87.805
1,72753E+12;2024-09-28T16.27.15.717;3.060;1.128;0.193;-0.471;40.427;-670.854;-73.598
1,72753E+12;2024-09-28T16.27.15.727;3.070;1.092;0.201;-0.566;34.085;-595.305;-58.354
1,72753E+12;2024-09-28T16.27.15.737;3.080;1.038;0.207;-0.645;25.488;-526.463;-43.659
1,72753E+12;2024-09-28T16.27.15.747;3.090;1.008;0.207;-0.703;15.854;-465.366;-32.134
1,72753E+12;2024-09-28T16.27.15.757;3.100;0.980;0.208;-0.746;6.220;-409.939;-25.061
1,72753E+12;2024-09-28T16.27.15.767;3.110;0.954;0.196;-0.787;-3.110;-356.829;-21.768
1,72753E+12;2024-09-28T16.27.15.777;3.120;0.903;0.181;-0.829;-10.244;-306.402;-20.976
1,72753E+12;2024-09-28T16.27.15.787;3.130;0.872;0.170;-0.861;-15.000;-256.768;-20.610
1,72753E+12;2024-09-28T16.27.15.797;3.140;0.868;0.156;-0.870;-16.707;-205.854;-19.512
1,72753E+12;2024-09-28T16.27.15.807;3.150;0.813;0.151;-0.877;-15.244;-158.963;-15.732
1,72753E+12;2024-09-28T16.27.15.817;3.160;0.722;0.156;-0.895;-11.707;-123.476;-11.524
1,72753E+12;2024-09-28T16.27.15.827;3.170;0.641;0.159;-0.913;-7.683;-104.085;-8.963
1,72753E+12;2024-09-28T16.27.15.837;3.180;0.599;0.177;-0.932;-4.573;-100.305;-8.049
1,72753E+12;2024-09-28T16.27.15.847;3.190;0.600;0.190;-0.949;-1.463;-103.902;-10.061
1,72753E+12;2024-09-28T16.27.15.857;3.200;0.618;0.191;-0.958;1.707;-105.183;-12.927
1,72753E+12;2024-09-28T16.27.15.867;3.210;0.636;0.191;-0.959;4.756;-99.695;-14.634
1,72753E+12;2024-09-28T16.27.15.877;3.220;0.653;0.184;-0.948;7.561;-84.878;-14.390
1,72753E+12;2024-09-28T16.27.15.887;3.230;0.651;0.184;-0.934;10.305;-64.024;-11.646
1,72753E+12;2024-09-28T16.27.15.897;3.240;0.646;0.186;-0.914;12.439;-42.683;-8.232
1,72753E+12;2024-09-28T16.27.15.907;3.250;0.611;0.185;-0.891;14.451;-26.890;-5.305
1,72753E+12;2024-09-28T16.27.15.917;3.260;0.554;0.181;-0.870;15.854;-20.183;-3.354
1,72753E+12;2024-09-28T16.27.15.927;3.270;0.536;0.186;-0.857;16.524;-21.951;-1.951
1,72753E+12;2024-09-28T16.27.15.937;3.280;0.582;0.189;-0.849;15.976;-24.878;-1.341
1,72753E+12;2024-09-28T16.27.15.947;3.290;0.645;0.188;-0.839;14.268;-20.488;-1.463
1,72753E+12;2024-09-28T16.27.15.957;3.300;0.662;0.181;-0.832;11.951;-7.256;-1.159
1,72753E+12;2024-09-28T16.27.15.967;3.310;0.665;0.184;-0.832;8.841;11.280;0.549
1,72753E+12;2024-09-28T16.27.15.977;3.320;0.719;0.194;-0.838;4.878;34.695;2.866
1,72753E+12;2024-09-28T16.27.15.987;3.330;0.779;0.209;-0.851;0.366;66.280;5.671
1,72753E+12;2024-09-28T16.27.15.997;3.340;0.827;0.219;-0.878;-5.549;107.500;9.207
1,72753E+12;2024-09-28T16.27.16.007;3.350;0.900;0.214;-0.878;-13.049;160.244;13.171
1,72753E+12;2024-09-28T16.27.16.017;3.360;0.975;0.200;-0.853;-20.122;224.207;18.476
1,72753E+12;2024-09-28T16.27.16.027;3.370;1.013;0.190;-0.832;-24.756;295.488;25.610
1,72753E+12;2024-09-28T16.27.16.037;3.380;1.022;0.186;-0.802;-27.073;364.329;35.061
1,72753E+12;2024-09-28T16.27.16.047;3.390;1.005;0.182;-0.769;-27.805;421.159;45.305
1,72753E+12;2024-09-28T16.27.16.057;3.400;0.996;0.189;-0.720;-27.683;463.354;53.232
1,72753E+12;2024-09-28T16.27.16.067;3.410;1.015;0.195;-0.658;-28.720;492.988;59.085
1,72753E+12;2024-09-28T16.27.16.077;3.420;1.016;0.183;-0.583;-29.756;510.244;63.537
1,72753E+12;2024-09-28T16.27.16.087;3.430;1.005;0.166;-0.498;-29.573;519.024;65.122
1,72753E+12;2024-09-28T16.27.16.097;3.440;0.995;0.162;-0.414;-28.720;521.341;65.488
1,72753E+12;2024-09-28T16.27.16.107;3.450;1.006;0.161;-0.338;-27.683;522.012;63.963
1,72753E+12;2024-09-28T16.27.16.117;3.460;1.027;0.157;-0.265;-27.439;524.756;62.134
1,72753E+12;2024-09-28T16.27.16.127;3.470;1.043;0.152;-0.195;-27.622;531.402;60.061
1,72753E+12;2024-09-28T16.27.16.137;3.480;1.047;0.150;-0.126;-28.598;541.341;57.683
1,72753E+12;2024-09-28T16.27.16.147;3.490;1.039;0.149;-0.074;-31.220;555.183;55.061
1,72753E+12;2024-09-28T16.27.16.157;3.500;1.042;0.146;-0.024;-35.549;576.037;51.890
1,72753E+12;2024-09-28T16.27.16.167;3.510;1.014;0.120;0.023;-39.695;601.402;48.963
1,72753E+12;2024-09-28T16.27.16.177;3.520;0.897;0.078;0.091;-42.561;625.244;47.378
1,72753E+12;2024-09-28T16.27.16.187;3.530;0.715;0.068;0.187;-44.207;630.793;48.232
1,72753E+12;2024-09-28T16.27.16.197;3.540;0.608;0.041;0.308;-42.805;618.293;47.744
1,72753E+12;2024-09-28T16.27.16.207;3.550;0.564;0.005;0.448;-36.768;596.524;46.159
1,72753E+12;2024-09-28T16.27.16.217;3.560;0.515;-0.032;0.565;-28.110;573.841;45.793
1,72753E+12;2024-09-28T16.27.16.227;3.570;0.368;-0.072;0.660;-17.500;540.915;46.707
1,72753E+12;2024-09-28T16.27.16.237;3.580;0.157;-0.071;0.741;-6.280;481.524;47.622
1,72753E+12;2024-09-28T16.27.16.247;3.590;0.035;-0.072;0.822;6.037;396.585;45.854
1,72753E+12;2024-09-28T16.27.16.257;3.600;0.040;-0.059;0.885;17.744;306.463;42.927
1,72753E+12;2024-09-28T16.27.16.267;3.610;0.082;-0.054;0.913;27.012;226.768;40.732
1,72753E+12;2024-09-28T16.27.16.277;3.620;0.116;-0.041;0.906;33.598;162.134;39.878
1,72753E+12;2024-09-28T16.27.16.287;3.630;0.196;-0.006;0.895;36.951;114.329;38.354
1,72753E+12;2024-09-28T16.27.16.297;3.640;0.293;0.033;0.886;36.585;89.207;32.561
1,72753E+12;2024-09-28T16.27.16.307;3.650;0.299;0.064;0.889;31.646;85.000;23.110
1,72753E+12;2024-09-28T16.27.16.317;3.660;0.216;0.063;0.896;22.317;88.049;14.329
1,72753E+12;2024-09-28T16.27.16.327;3.670;0.113;0.051;0.934;13.171;84.085;8.841
1,72753E+12;2024-09-28T16.27.16.337;3.680;0.058;0.049;0.973;6.768;76.341;3.598
1,72753E+12;2024-09-28T16.27.16.347;3.690;0.026;0.033;1.020;0.610;70.671;-0.549
1,72753E+12;2024-09-28T16.27.16.357;3.700;-0.005;0.019;1.074;-2.500;62.317;1.037
1,72753E+12;2024-09-28T16.27.16.367;3.710;-0.023;0.019;1.099;-0.732;45.427;4.817
1,72753E+12;2024-09-28T16.27.16.377;3.720;-0.035;0.026;1.088;3.049;22.378;5.366
1,72753E+12;2024-09-28T16.27.16.387;3.730;0.007;0.041;1.059;5.732;4.451;3.720
1,72753E+12;2024-09-28T16.27.16.397;3.740;0.089;0.056;1.026;5.305;-1.037;3.963
1,72753E+12;2024-09-28T16.27.16.407;3.750;0.124;0.064;0.998;1.646;2.988;4.878
1,72753E+12;2024-09-28T16.27.16.417;3.760;0.112;0.060;0.978;-3.537;7.195;4.451
1,72753E+12;2024-09-28T16.27.16.427;3.770;0.095;0.051;0.970;-7.744;5.915;2.866
1,72753E+12;2024-09-28T16.27.16.437;3.780;0.075;0.038;0.966;-10.305;0.915;0.305
1,72753E+12;2024-09-28T16.27.16.447;3.790;0.081;0.021;0.966;-11.890;-3.902;-1.463
1,72753E+12;2024-09-28T16.27.16.457;3.800;0.101;0.014;0.971;-12.195;-9.146;-1.341
1,72753E+12;2024-09-28T16.27.16.467;3.810;0.120;0.008;0.979;-11.037;-13.780;-2.439
1,72753E+12;2024-09-28T16.27.16.477;3.820;0.141;0.001;0.973;-8.598;-15.183;-3.902
1,72753E+12;2024-09-28T16.27.16.487;3.830;0.144;-0.002;0.966;-5.976;-12.561;-4.634
1,72753E+12;2024-09-28T16.27.16.497;3.840;0.126;-0.009;0.954;-3.537;-9.756;-4.268
1,72753E+12;2024-09-28T16.27.16.507;3.850;0.116;-0.009;0.938;-1.280;-10.488;-3.232
1,72753E+12;2024-09-28T16.27.16.517;3.860;0.123;-0.008;0.930;0.610;-14.268;-1.890
1,72753E+12;2024-09-28T16.27.16.527;3.870;0.149;-0.001;0.934;2.073;-18.232;-0.793
1,72753E+12;2024-09-28T16.27.16.537;3.880;0.172;0.003;0.943;3.110;-19.878;-0.976
1,72753E+12;2024-09-28T16.27.16.547;3.890;0.169;0.000;0.957;3.110;-19.817;-2.256
1,72753E+12;2024-09-28T16.27.16.557;3.900;0.153;0.001;0.971;3.293;-20.793;-2.683
1,72753E+12;2024-09-28T16.27.16.567;3.910;0.147;0.003;0.986;4.146;-23.598;-2.134
1,72753E+12;2024-09-28T16.27.16.577;3.920;0.149;0.005;1.000;5.427;-27.439;-1.341
1,72753E+12;2024-09-28T16.27.16.587;3.930;0.170;0.007;1.006;6.463;-30.000;-0.671
1,72753E+12;2024-09-28T16.27.16.597;3.940;0.196;0.015;1.005;6.585;-29.390;-0.732
1,72753E+12;2024-09-28T16.27.16.607;3.950;0.186;0.024;1.000;5.854;-27.561;-0.976
1,72753E+12;2024-09-28T16.27.16.617;3.960;0.151;0.023;0.992;4.939;-30.366;-0.549
1,72753E+12;2024-09-28T16.27.16.627;3.970;0.124;0.020;0.982;4.024;-41.890;0.549
1,72753E+12;2024-09-28T16.27.16.637;3.980;0.107;0.021;0.978;3.293;-60.854;0.732
1,72753E+12;2024-09-28T16.27.16.647;3.990;0.091;0.019;0.968;2.866;-85.000;0.549
1,72753E+12;2024-09-28T16.27.16.657;4.000;0.091;0.019;0.962;3.354;-113.049;1.280
1,72753E+12;2024-09-28T16.27.16.667;4.010;0.113;0.018;0.952;4.756;-143.476;1.951
1,72753E+12;2024-09-28T16.27.16.677;4.020;0.122;0.012;0.936;6.646;-175.610;2.195
1,72753E+12;2024-09-28T16.27.16.687;4.030;0.107;0.007;0.910;9.451;-214.207;3.049
1,72753E+12;2024-09-28T16.27.16.697;4.040;0.083;0.002;0.874;13.171;-265.549;4.512
1,72753E+12;2024-09-28T16.27.16.707;4.050;0.065;0.005;0.836;18.049;-335.793;6.951
1,72753E+12;2024-09-28T16.27.16.717;4.060;0.084;0.021;0.760;23.537;-425.976;8.598
1,72753E+12;2024-09-28T16.27.16.727;4.070;0.176;0.047;0.636;27.927;-527.378;7.317
1,72753E+12;2024-09-28T16.27.16.737;4.080;0.333;0.061;0.518;28.902;-621.890;2.439
1,72753E+12;2024-09-28T16.27.16.747;4.090;0.506;0.045;0.410;27.256;-698.659;-1.951
1,72753E+12;2024-09-28T16.27.16.757;4.100;0.654;0.041;0.283;25.305;-757.622;-4.329
1,72753E+12;2024-09-28T16.27.16.767;4.110;0.785;0.065;0.120;22.988;-801.341;-7.927
1,72753E+12;2024-09-28T16.27.16.777;4.120;0.900;0.099;-0.057;18.902;-831.159;-13.110
1,72753E+12;2024-09-28T16.27.16.787;4.130;1.012;0.127;-0.201;11.463;-842.805;-18.049
1,72753E+12;2024-09-28T16.27.16.797;4.140;1.109;0.112;-0.299;1.707;-830.976;-19.634
1,72753E+12;2024-09-28T16.27.16.807;4.150;1.135;0.082;-0.356;-3.841;-796.341;-16.585
1,72753E+12;2024-09-28T16.27.16.817;4.160;1.111;0.088;-0.427;-6.768;-745.122;-9.329
1,72753E+12;2024-09-28T16.27.16.827;4.170;1.105;0.096;-0.494;-9.390;-681.281;-3.232
1,72753E+12;2024-09-28T16.27.16.837;4.180;1.117;0.098;-0.544;-12.500;-604.756;2.073
1,72753E+12;2024-09-28T16.27.16.847;4.190;1.113;0.087;-0.585;-16.829;-515.793;7.073
1,72753E+12;2024-09-28T16.27.16.857;4.200;1.016;0.085;-0.638;-22.622;-426.829;10.854
1,72753E+12;2024-09-28T16.27.16.867;4.210;0.913;0.089;-0.693;-30.244;-345.488;12.073
1,72753E+12;2024-09-28T16.27.16.877;4.220;0.895;0.095;-0.731;-39.451;-273.293;9.573
1,72753E+12;2024-09-28T16.27.16.887;4.230;0.899;0.089;-0.757;-47.073;-207.683;5.305
1,72753E+12;2024-09-28T16.27.16.897;4.240;0.818;0.071;-0.777;-52.622;-152.317;-0.183
1,72753E+12;2024-09-28T16.27.16.907;4.250;0.691;0.059;-0.793;-55.549;-115.366;-4.085
1,72753E+12;2024-09-28T16.27.16.917;4.260;0.618;0.070;-0.807;-55.671;-100.549;-7.744
1,72753E+12;2024-09-28T16.27.16.927;4.270;0.620;0.079;-0.820;-53.780;-100.122;-12.317
1,72753E+12;2024-09-28T16.27.16.937;4.280;0.634;0.088;-0.834;-50.244;-106.220;-16.159
1,72753E+12;2024-09-28T16.27.16.947;4.290;0.624;0.102;-0.861;-45.183;-115.427;-18.537
1,72753E+12;2024-09-28T16.27.16.957;4.300;0.645;0.119;-0.904;-40.183;-121.768;-20.244
1,72753E+12;2024-09-28T16.27.16.967;4.310;0.680;0.135;-0.940;-36.341;-120.244;-20.183
1,72753E+12;2024-09-28T16.27.16.977;4.320;0.702;0.154;-0.969;-34.085;-110.183;-16.951
1,72753E+12;2024-09-28T16.27.16.987;4.330;0.752;0.168;-0.983;-33.232;-91.402;-13.354
1,72753E+12;2024-09-28T16.27.16.997;4.340;0.786;0.170;-0.982;-32.988;-63.841;-10.488
1,72753E+12;2024-09-28T16.27.17.007;4.350;0.773;0.165;-0.973;-31.951;-30.183;-7.378
1,72753E+12;2024-09-28T16.27.17.017;4.360;0.758;0.164;-0.951;-29.268;3.720;-3.659
1,72753E+12;2024-09-28T16.27.17.027;4.370;0.739;0.162;-0.927;-24.512;32.866;-0.122
1,72753E+12;2024-09-28T16.27.17.037;4.380;0.727;0.157;-0.911;-17.988;56.524;2.317
1,72753E+12;2024-09-28T16.27.17.047;4.390;0.724;0.167;-0.898;-11.524;73.902;4.512
1,72753E+12;2024-09-28T16.27.17.057;4.400;0.717;0.177;-0.895;-5.244;85.244;6.280
1,72753E+12;2024-09-28T16.27.17.067;4.410;0.727;0.181;-0.893;-0.244;94.390;7.256
1,72753E+12;2024-09-28T16.27.17.077;4.420;0.766;0.186;-0.881;2.500;105.793;8.354
1,72753E+12;2024-09-28T16.27.17.087;4.430;0.817;0.190;-0.864;3.354;123.902;9.939
1,72753E+12;2024-09-28T16.27.17.097;4.440;0.874;0.193;-0.850;2.622;153.171;11.768
1,72753E+12;2024-09-28T16.27.17.107;4.450;0.925;0.198;-0.835;0.122;192.195;14.939
1,72753E+12;2024-09-28T16.27.17.117;4.460;1.015;0.206;-0.825;-4.451;244.878;17.866
1,72753E+12;2024-09-28T16.27.17.127;4.470;1.118;0.209;-0.790;-10.671;311.646;21.280
1,72753E+12;2024-09-28T16.27.17.137;4.480;1.180;0.205;-0.745;-16.951;388.049;26.890
1,72753E+12;2024-09-28T16.27.17.147;4.490;1.202;0.195;-0.708;-21.524;467.866;33.476
1,72753E+12;2024-09-28T16.27.17.157;4.500;1.203;0.185;-0.658;-24.573;545.488;40.244
1,72753E+12;2024-09-28T16.27.17.167;4.510;1.195;0.185;-0.604;-26.524;617.500;48.293
1,72753E+12;2024-09-28T16.27.17.177;4.520;1.197;0.183;-0.554;-28.293;682.561;57.744
1,72753E+12;2024-09-28T16.27.17.187;4.530;1.152;0.187;-0.510;-30.000;735.610;67.744
1,72753E+12;2024-09-28T16.27.17.197;4.540;1.045;0.190;-0.468;-32.805;770.244;77.195
1,72753E+12;2024-09-28T16.27.17.207;4.550;0.902;0.197;-0.388;-38.110;777.012;83.293
1,72753E+12;2024-09-28T16.27.17.217;4.560;0.758;0.185;-0.245;-46.220;753.110;83.720
1,72753E+12;2024-09-28T16.27.17.227;4.570;0.626;0.150;-0.074;-52.378;702.378;80.183
1,72753E+12;2024-09-28T16.27.17.237;4.580;0.564;0.107;0.112;-53.049;636.646;74.756
1,72753E+12;2024-09-28T16.27.17.247;4.590;0.619;0.069;0.287;-49.451;575.427;70.244
1,72753E+12;2024-09-28T16.27.17.257;4.600;0.696;0.034;0.421;-41.463;536.159;67.927
1,72753E+12;2024-09-28T16.27.17.267;4.610;0.714;0.012;0.513;-31.646;519.817;67.561
1,72753E+12;2024-09-28T16.27.17.277;4.620;0.624;-0.007;0.582;-21.585;508.780;65.671
1,72753E+12;2024-09-28T16.27.17.287;4.630;0.442;-0.017;0.633;-10.610;483.354;61.159
1,72753E+12;2024-09-28T16.27.17.297;4.640;0.273;-0.026;0.669;-1.829;434.146;55.549
1,72753E+12;2024-09-28T16.27.17.307;4.650;0.182;-0.022;0.711;2.744;367.256;51.098
1,72753E+12;2024-09-28T16.27.17.317;4.660;0.145;-0.021;0.777;2.622;293.415;47.012
1,72753E+12;2024-09-28T16.27.17.327;4.670;0.149;-0.025;0.852;2.561;222.744;41.037
1,72753E+12;2024-09-28T16.27.17.337;4.680;0.231;-0.024;0.911;4.695;175.427;33.110
1,72753E+12;2024-09-28T16.27.17.347;4.690;0.291;-0.042;0.976;3.232;161.402;25.305
1,72753E+12;2024-09-28T16.27.17.357;4.700;0.258;-0.049;1.019;0.000;167.317;21.280
1,72753E+12;2024-09-28T16.27.17.367;4.710;0.195;-0.039;1.020;-1.524;176.463;18.354
1,72753E+12;2024-09-28T16.27.17.377;4.720;0.100;-0.042;1.006;-5.610;177.622;16.951
1,72753E+12;2024-09-28T16.27.17.387;4.730;-0.044;-0.047;1.003;-10.549;157.927;18.598
