epoc (ms);timestamp (+0300);elapsed (s);acc_x;acc_y;acc_z;gyr_x;gyr_y;gyr_z
1,72753E+12;2024-09-28T16.21.25.378;0.000;-0.159;-0.050;0.916;-10.122;-355.671;4.390
1,72753E+12;2024-09-28T16.21.25.388;0.010;-0.135;-0.043;0.891;-9.451;-371.585;2.439
1,72753E+12;2024-09-28T16.21.25.398;0.020;-0.015;-0.028;0.849;-9.329;-430.305;-5.671
1,72753E+12;2024-09-28T16.21.25.408;0.030;0.230;-0.014;0.810;-12.439;-474.085;-12.134
1,72753E+12;2024-09-28T16.21.25.418;0.040;0.448;-0.032;0.790;-17.622;-487.622;-14.329
1,72753E+12;2024-09-28T16.21.25.428;0.050;0.523;-0.061;0.761;-22.439;-503.354;-17.805
1,72753E+12;2024-09-28T16.21.25.438;0.060;0.504;-0.070;0.710;-23.476;-535.854;-22.500
1,72753E+12;2024-09-28T16.21.25.448;0.070;0.497;-0.049;0.637;-22.744;-575.854;-27.683
1,72753E+12;2024-09-28T16.21.25.458;0.080;0.596;-0.023;0.534;-23.902;-612.866;-32.134
1,72753E+12;2024-09-28T16.21.25.468;0.090;0.721;-0.028;0.434;-26.585;-647.195;-34.329
1,72753E+12;2024-09-28T16.21.25.478;0.100;0.783;-0.015;0.321;-29.085;-675.732;-38.476
1,72753E+12;2024-09-28T16.21.25.488;0.110;0.824;-0.013;0.186;-31.098;-699.146;-40.000
1,72753E+12;2024-09-28T16.21.25.498;0.120;0.856;-0.005;0.052;-33.293;-709.085;-39.146
1,72753E+12;2024-09-28T16.21.25.508;0.130;0.921;-0.002;-0.084;-34.695;-703.963;-36.402
1,72753E+12;2024-09-28T16.21.25.518;0.140;0.990;0.002;-0.193;-34.695;-681.829;-33.902
1,72753E+12;2024-09-28T16.21.25.528;0.150;1.042;-0.001;-0.296;-32.927;-658.659;-29.573
1,72753E+12;2024-09-28T16.21.25.538;0.160;0.978;0.007;-0.416;-34.329;-645.854;-24.024
1,72753E+12;2024-09-28T16.21.25.548;0.170;0.856;0.069;-0.558;-38.598;-631.281;-23.476
1,72753E+12;2024-09-28T16.21.25.558;0.180;0.874;0.086;-0.670;-42.805;-608.415;-22.683
1,72753E+12;2024-09-28T16.21.25.568;0.190;0.927;0.066;-0.725;-47.256;-570.671;-17.866
1,72753E+12;2024-09-28T16.21.25.578;0.200;0.919;0.067;-0.783;-51.646;-514.878;-14.756
1,72753E+12;2024-09-28T16.21.25.588;0.210;0.932;0.083;-0.791;-55.244;-443.902;-13.598
1,72753E+12;2024-09-28T16.21.25.598;0.220;0.979;0.080;-0.787;-56.341;-355.549;-12.195
1,72753E+12;2024-09-28T16.21.25.608;0.230;0.968;0.035;-0.784;-54.390;-262.317;-9.329
1,72753E+12;2024-09-28T16.21.25.618;0.240;0.881;0.021;-0.808;-50.244;-182.012;-6.341
1,72753E+12;2024-09-28T16.21.25.628;0.250;0.756;0.031;-0.861;-45.671;-117.378;-4.268
1,72753E+12;2024-09-28T16.21.25.638;0.260;0.705;0.036;-0.905;-41.341;-69.146;-0.732
1,72753E+12;2024-09-28T16.21.25.648;0.270;0.661;0.047;-0.950;-37.622;-39.268;2.744
1,72753E+12;2024-09-28T16.21.25.658;0.280;0.596;0.069;-0.989;-34.268;-24.268;2.805
1,72753E+12;2024-09-28T16.21.25.668;0.290;0.585;0.073;-1.017;-31.159;-21.220;2.134
1,72753E+12;2024-09-28T16.21.25.678;0.300;0.569;0.073;-1.034;-28.476;-23.780;0.732
1,72753E+12;2024-09-28T16.21.25.688;0.310;0.565;0.081;-1.050;-26.341;-25.915;-2.805
1,72753E+12;2024-09-28T16.21.25.698;0.320;0.598;0.085;-1.055;-23.963;-21.585;-5.671
1,72753E+12;2024-09-28T16.21.25.708;0.330;0.639;0.078;-1.049;-20.732;-9.817;-6.159
1,72753E+12;2024-09-28T16.21.25.718;0.340;0.652;0.072;-1.026;-15.549;2.317;-5.610
1,72753E+12;2024-09-28T16.21.25.728;0.350;0.597;0.062;-1.000;-9.268;8.537;-3.963
1,72753E+12;2024-09-28T16.21.25.738;0.360;0.554;0.073;-0.973;-2.012;10.732;-2.805
1,72753E+12;2024-09-28T16.21.25.748;0.370;0.555;0.073;-0.939;4.695;10.732;-0.488
1,72753E+12;2024-09-28T16.21.25.758;0.380;0.543;0.077;-0.926;9.451;9.878;0.549
1,72753E+12;2024-09-28T16.21.25.768;0.390;0.551;0.098;-0.921;12.195;12.378;0.122
1,72753E+12;2024-09-28T16.21.25.778;0.400;0.587;0.109;-0.920;12.866;22.195;0.122
1,72753E+12;2024-09-28T16.21.25.788;0.410;0.620;0.115;-0.906;12.195;42.256;0.732
1,72753E+12;2024-09-28T16.21.25.798;0.420;0.660;0.115;-0.899;11.402;71.280;2.622
1,72753E+12;2024-09-28T16.21.25.808;0.430;0.698;0.112;-0.883;10.915;104.085;5.305
1,72753E+12;2024-09-28T16.21.25.818;0.440;0.720;0.103;-0.858;10.915;138.354;8.110
1,72753E+12;2024-09-28T16.21.25.828;0.450;0.745;0.092;-0.828;11.646;171.280;11.463
1,72753E+12;2024-09-28T16.21.25.838;0.460;0.757;0.083;-0.805;12.744;200.000;15.366
1,72753E+12;2024-09-28T16.21.25.848;0.470;0.755;0.077;-0.790;13.720;221.951;18.720
1,72753E+12;2024-09-28T16.21.25.858;0.480;0.759;0.077;-0.768;14.451;238.415;20.854
1,72753E+12;2024-09-28T16.21.25.868;0.490;0.786;0.076;-0.736;15.000;250.915;22.195
1,72753E+12;2024-09-28T16.21.25.878;0.500;0.812;0.072;-0.711;15.305;260.915;22.561
1,72753E+12;2024-09-28T16.21.25.888;0.510;0.833;0.071;-0.685;15.061;272.866;21.646
1,72753E+12;2024-09-28T16.21.25.898;0.520;0.880;0.068;-0.661;14.329;287.866;21.524
1,72753E+12;2024-09-28T16.21.25.908;0.530;0.925;0.061;-0.634;13.598;305.427;21.707
1,72753E+12;2024-09-28T16.21.25.918;0.540;0.948;0.061;-0.608;12.561;330.427;21.768
1,72753E+12;2024-09-28T16.21.25.928;0.550;1.008;0.056;-0.574;11.890;357.744;24.329
1,72753E+12;2024-09-28T16.21.25.938;0.560;1.041;0.042;-0.522;12.866;376.585;28.476
1,72753E+12;2024-09-28T16.21.25.948;0.570;0.981;0.030;-0.467;14.207;384.512;32.073
1,72753E+12;2024-09-28T16.21.25.958;0.580;0.948;0.036;-0.412;16.951;387.134;34.329
1,72753E+12;2024-09-28T16.21.25.968;0.590;1.010;0.034;-0.336;19.451;388.598;35.244
1,72753E+12;2024-09-28T16.21.25.978;0.600;1.065;0.029;-0.263;23.110;396.098;33.476
1,72753E+12;2024-09-28T16.21.25.988;0.610;1.092;0.017;-0.200;27.073;407.439;32.073
1,72753E+12;2024-09-28T16.21.25.998;0.620;1.094;-0.001;-0.132;30.915;414.329;31.037
1,72753E+12;2024-09-28T16.21.26.008;0.630;1.043;-0.008;-0.073;33.963;418.415;27.256
1,72753E+12;2024-09-28T16.21.26.018;0.640;0.996;-0.002;-0.054;33.354;430.366;22.927
1,72753E+12;2024-09-28T16.21.26.028;0.650;0.998;0.018;-0.033;28.110;454.390;23.720
1,72753E+12;2024-09-28T16.21.26.038;0.660;1.052;0.032;0.018;21.037;493.171;26.402
1,72753E+12;2024-09-28T16.21.26.048;0.670;1.082;0.018;0.080;15.488;530.915;29.329
1,72753E+12;2024-09-28T16.21.26.058;0.680;0.982;0.007;0.141;10.549;560.244;31.098
1,72753E+12;2024-09-28T16.21.26.068;0.690;0.865;0.014;0.210;9.451;578.963;32.561
1,72753E+12;2024-09-28T16.21.26.078;0.700;0.791;-0.024;0.322;12.744;582.317;37.195
1,72753E+12;2024-09-28T16.21.26.088;0.710;0.677;-0.016;0.410;16.402;574.329;38.841
1,72753E+12;2024-09-28T16.21.26.098;0.720;0.611;-0.023;0.496;20.061;560.061;40.061
1,72753E+12;2024-09-28T16.21.26.108;0.730;0.568;-0.043;0.587;22.012;532.500;41.220
1,72753E+12;2024-09-28T16.21.26.118;0.740;0.427;-0.058;0.658;24.390;482.500;39.634
1,72753E+12;2024-09-28T16.21.26.128;0.750;0.240;-0.079;0.735;27.927;410.305;36.646
1,72753E+12;2024-09-28T16.21.26.138;0.760;0.117;-0.059;0.822;31.402;324.268;32.561
1,72753E+12;2024-09-28T16.21.26.148;0.770;0.053;-0.039;0.886;33.659;240.732;27.439
1,72753E+12;2024-09-28T16.21.26.158;0.780;0.058;-0.032;0.932;33.841;171.768;22.500
1,72753E+12;2024-09-28T16.21.26.168;0.790;0.103;0.004;0.948;30.610;123.232;15.061
1,72753E+12;2024-09-28T16.21.26.178;0.800;0.126;0.008;0.962;23.049;94.512;11.768
1,72753E+12;2024-09-28T16.21.26.188;0.810;0.109;0.020;0.995;15.610;80.183;10.732
1,72753E+12;2024-09-28T16.21.26.198;0.820;0.118;0.032;1.032;8.476;75.366;11.463
1,72753E+12;2024-09-28T16.21.26.208;0.830;0.120;0.022;1.053;3.232;70.305;12.317
1,72753E+12;2024-09-28T16.21.26.218;0.840;0.068;0.012;1.058;1.037;56.524;12.073
1,72753E+12;2024-09-28T16.21.26.228;0.850;0.001;0.006;1.055;1.098;32.256;11.098
1,72753E+12;2024-09-28T16.21.26.238;0.860;-0.046;0.003;1.043;2.744;1.159;10.183
1,72753E+12;2024-09-28T16.21.26.248;0.870;-0.044;0.002;1.030;5.183;-28.720;8.598
1,72753E+12;2024-09-28T16.21.26.258;0.880;0.015;0.008;1.019;7.500;-46.524;5.854
1,72753E+12;2024-09-28T16.21.26.268;0.890;0.108;0.017;1.003;7.744;-44.451;3.049
1,72753E+12;2024-09-28T16.21.26.278;0.900;0.190;0.026;0.989;5.732;-25.366;2.744
1,72753E+12;2024-09-28T16.21.26.288;0.910;0.225;0.027;0.987;2.195;0.915;2.988
1,72753E+12;2024-09-28T16.21.26.298;0.920;0.224;0.025;0.979;-1.463;20.366;3.902
1,72753E+12;2024-09-28T16.21.26.308;0.930;0.168;0.015;0.969;-2.561;25.000;5.732
1,72753E+12;2024-09-28T16.21.26.318;0.940;0.098;0.002;0.962;-1.707;15.488;5.549
1,72753E+12;2024-09-28T16.21.26.328;0.950;0.057;-0.010;0.957;-0.122;-1.585;3.841
1,72753E+12;2024-09-28T16.21.26.338;0.960;0.062;-0.017;0.956;2.012;-18.720;2.744
1,72753E+12;2024-09-28T16.21.26.348;0.970;0.100;-0.017;0.963;4.085;-26.890;1.098
1,72753E+12;2024-09-28T16.21.26.358;0.980;0.157;-0.014;0.974;4.878;-22.073;-0.488
1,72753E+12;2024-09-28T16.21.26.368;0.990;0.204;-0.009;0.978;4.085;-10.732;-0.366
1,72753E+12;2024-09-28T16.21.26.378;1.000;0.205;-0.005;0.983;3.476;-0.915;-0.366
1,72753E+12;2024-09-28T16.21.26.388;1.010;0.177;-0.005;0.982;2.561;3.476;-0.732
1,72753E+12;2024-09-28T16.21.26.398;1.020;0.146;-0.004;0.975;1.646;1.890;-0.366
1,72753E+12;2024-09-28T16.21.26.408;1.030;0.138;-0.005;0.975;0.976;-2.805;-0.854
1,72753E+12;2024-09-28T16.21.26.418;1.040;0.144;-0.006;0.986;0.976;-8.720;-2.439
1,72753E+12;2024-09-28T16.21.26.428;1.050;0.141;-0.007;0.998;1.463;-14.573;-3.598
1,72753E+12;2024-09-28T16.21.26.438;1.060;0.150;-0.005;1.001;2.500;-18.780;-4.024
1,72753E+12;2024-09-28T16.21.26.448;1.070;0.171;-0.000;1.000;2.195;-19.878;-4.207
1,72753E+12;2024-09-28T16.21.26.458;1.080;0.178;0.007;0.996;1.341;-19.329;-4.146
1,72753E+12;2024-09-28T16.21.26.468;1.090;0.175;0.013;0.992;0.305;-17.378;-3.841
1,72753E+12;2024-09-28T16.21.26.478;1.100;0.187;0.015;0.984;-1.585;-14.390;-3.902
1,72753E+12;2024-09-28T16.21.26.488;1.110;0.193;0.014;0.980;-4.024;-16.220;-3.598
1,72753E+12;2024-09-28T16.21.26.498;1.120;0.154;0.016;0.961;-6.890;-29.756;-2.866
1,72753E+12;2024-09-28T16.21.26.508;1.130;0.074;0.015;0.933;-12.683;-62.378;-0.366
1,72753E+12;2024-09-28T16.21.26.518;1.140;-0.034;0.008;0.908;-18.841;-123.598;7.378
1,72753E+12;2024-09-28T16.21.26.528;1.150;-0.119;-0.007;0.902;-20.732;-208.720;13.476
1,72753E+12;2024-09-28T16.21.26.538;1.160;-0.086;-0.006;0.901;-21.098;-300.183;11.463
1,72753E+12;2024-09-28T16.21.26.548;1.170;0.036;-0.001;0.890;-21.890;-383.232;4.024
1,72753E+12;2024-09-28T16.21.26.558;1.180;0.174;-0.005;0.859;-21.951;-445.793;-6.220
1,72753E+12;2024-09-28T16.21.26.568;1.190;0.328;-0.018;0.814;-23.171;-492.561;-14.207
1,72753E+12;2024-09-28T16.21.26.578;1.200;0.415;-0.037;0.749;-24.329;-537.744;-19.695
1,72753E+12;2024-09-28T16.21.26.588;1.210;0.429;-0.031;0.660;-25.793;-584.146;-25.549
1,72753E+12;2024-09-28T16.21.26.598;1.220;0.500;-0.012;0.555;-28.963;-628.841;-27.866
1,72753E+12;2024-09-28T16.21.26.608;1.230;0.638;-0.005;0.460;-32.134;-664.878;-29.573
1,72753E+12;2024-09-28T16.21.26.618;1.240;0.795;0.014;0.361;-35.976;-685.549;-35.427
1,72753E+12;2024-09-28T16.21.26.628;1.250;0.925;0.012;0.259;-39.024;-691.890;-40.122
1,72753E+12;2024-09-28T16.21.26.638;1.260;0.999;-0.000;0.166;-40.671;-688.781;-41.402
1,72753E+12;2024-09-28T16.21.26.648;1.270;1.011;-0.002;0.054;-43.110;-673.659;-40.488
1,72753E+12;2024-09-28T16.21.26.658;1.280;1.041;0.036;-0.076;-47.256;-624.329;-42.073
1,72753E+12;2024-09-28T16.21.26.668;1.290;1.198;0.026;-0.129;-47.622;-556.341;-36.951
1,72753E+12;2024-09-28T16.21.26.678;1.300;1.228;-0.030;-0.136;-43.780;-510.732;-23.537
1,72753E+12;2024-09-28T16.21.26.688;1.310;0.982;0.001;-0.211;-39.756;-505.244;-16.524
1,72753E+12;2024-09-28T16.21.26.698;1.320;0.756;0.050;-0.379;-38.415;-539.146;-16.280
1,72753E+12;2024-09-28T16.21.26.708;1.330;0.695;0.117;-0.557;-40.793;-576.159;-21.341
1,72753E+12;2024-09-28T16.21.26.718;1.340;0.768;0.115;-0.687;-42.561;-597.927;-24.634
1,72753E+12;2024-09-28T16.21.26.728;1.350;0.806;0.087;-0.788;-45.915;-597.195;-22.866
1,72753E+12;2024-09-28T16.21.26.738;1.360;0.775;0.098;-0.868;-52.622;-572.195;-23.354
1,72753E+12;2024-09-28T16.21.26.748;1.370;0.801;0.113;-0.925;-59.512;-530.122;-24.512
1,72753E+12;2024-09-28T16.21.26.758;1.380;0.795;0.099;-0.966;-65.488;-470.061;-20.610
1,72753E+12;2024-09-28T16.21.26.768;1.390;0.747;0.075;-0.970;-67.622;-402.012;-14.695
1,72753E+12;2024-09-28T16.21.26.778;1.400;0.717;0.067;-0.966;-64.573;-340.122;-9.268
1,72753E+12;2024-09-28T16.21.26.788;1.410;0.672;0.071;-0.967;-58.354;-274.695;-5.610
1,72753E+12;2024-09-28T16.21.26.798;1.420;0.690;0.066;-0.950;-51.220;-204.146;-3.293
1,72753E+12;2024-09-28T16.21.26.808;1.430;0.685;0.055;-0.930;-42.195;-136.220;-0.488
1,72753E+12;2024-09-28T16.21.26.818;1.440;0.578;0.057;-0.936;-33.415;-78.841;0.854
1,72753E+12;2024-09-28T16.21.26.828;1.450;0.488;0.069;-0.969;-25.244;-38.049;1.951
1,72753E+12;2024-09-28T16.21.26.838;1.460;0.430;0.079;-1.010;-18.537;-14.817;3.110
1,72753E+12;2024-09-28T16.21.26.848;1.470;0.383;0.102;-1.047;-14.512;-5.610;2.378
1,72753E+12;2024-09-28T16.21.26.858;1.480;0.389;0.126;-1.074;-12.866;-4.695;0.000
1,72753E+12;2024-09-28T16.21.26.868;1.490;0.413;0.138;-1.080;-11.829;-5.976;-2.927
1,72753E+12;2024-09-28T16.21.26.878;1.500;0.424;0.139;-1.072;-10.305;-5.244;-5.915
1,72753E+12;2024-09-28T16.21.26.888;1.510;0.445;0.133;-1.058;-6.768;1.341;-7.866
1,72753E+12;2024-09-28T16.21.26.898;1.520;0.475;0.124;-1.037;-2.561;15.854;-7.805
1,72753E+12;2024-09-28T16.21.26.908;1.530;0.503;0.122;-1.016;1.707;36.341;-6.037
1,72753E+12;2024-09-28T16.21.26.918;1.540;0.517;0.118;-1.000;6.220;58.293;-3.049
1,72753E+12;2024-09-28T16.21.26.928;1.550;0.517;0.122;-0.986;10.366;80.488;0.244
1,72753E+12;2024-09-28T16.21.26.938;1.560;0.529;0.122;-0.974;13.598;102.683;4.451
1,72753E+12;2024-09-28T16.21.26.948;1.570;0.548;0.124;-0.966;15.976;123.171;8.659
1,72753E+12;2024-09-28T16.21.26.958;1.580;0.562;0.129;-0.954;18.049;140.976;11.280
1,72753E+12;2024-09-28T16.21.26.968;1.590;0.584;0.129;-0.941;19.756;156.402;13.049
1,72753E+12;2024-09-28T16.21.26.978;1.600;0.605;0.133;-0.931;20.732;172.012;14.085
1,72753E+12;2024-09-28T16.21.26.988;1.610;0.641;0.140;-0.929;20.854;190.915;14.329
1,72753E+12;2024-09-28T16.21.26.998;1.620;0.692;0.141;-0.924;20.122;215.732;15.183
1,72753E+12;2024-09-28T16.21.27.008;1.630;0.737;0.132;-0.913;19.878;244.695;16.524
1,72753E+12;2024-09-28T16.21.27.018;1.640;0.770;0.134;-0.904;19.939;278.232;18.232
1,72753E+12;2024-09-28T16.21.27.028;1.650;0.821;0.123;-0.891;20.488;314.817;21.646
1,72753E+12;2024-09-28T16.21.27.038;1.660;0.856;0.106;-0.854;22.439;347.012;26.098
1,72753E+12;2024-09-28T16.21.27.048;1.670;0.840;0.094;-0.801;24.939;371.220;29.817
1,72753E+12;2024-09-28T16.21.27.058;1.680;0.833;0.085;-0.750;28.841;390.244;34.512
1,72753E+12;2024-09-28T16.21.27.068;1.690;0.864;0.071;-0.702;32.439;409.146;41.280
1,72753E+12;2024-09-28T16.21.27.078;1.700;0.921;0.069;-0.652;34.390;431.829;48.963
1,72753E+12;2024-09-28T16.21.27.088;1.710;1.002;0.079;-0.602;34.329;463.537;55.183
1,72753E+12;2024-09-28T16.21.27.098;1.720;1.104;0.077;-0.542;32.683;503.598;61.159
1,72753E+12;2024-09-28T16.21.27.108;1.730;1.166;0.066;-0.485;29.512;549.756;67.378
1,72753E+12;2024-09-28T16.21.27.118;1.740;1.183;0.057;-0.412;24.512;593.415;73.598
1,72753E+12;2024-09-28T16.21.27.128;1.750;1.173;0.046;-0.345;19.634;625.854;78.659
1,72753E+12;2024-09-28T16.21.27.138;1.760;1.137;0.031;-0.284;16.159;642.927;80.366
1,72753E+12;2024-09-28T16.21.27.148;1.770;1.063;0.033;-0.225;11.951;640.305;79.268
1,72753E+12;2024-09-28T16.21.27.158;1.780;0.931;0.031;-0.152;7.561;617.500;79.695
1,72753E+12;2024-09-28T16.21.27.168;1.790;0.818;0.021;-0.043;4.451;584.268;81.037
1,72753E+12;2024-09-28T16.21.27.178;1.800;0.796;0.011;0.079;2.195;555.244;76.463
1,72753E+12;2024-09-28T16.21.27.188;1.810;0.829;-0.023;0.212;4.695;543.232;71.098
1,72753E+12;2024-09-28T16.21.27.198;1.820;0.838;-0.056;0.316;9.146;543.902;68.780
1,72753E+12;2024-09-28T16.21.27.208;1.830;0.781;-0.063;0.392;12.073;544.817;67.744
1,72753E+12;2024-09-28T16.21.27.218;1.840;0.666;-0.085;0.452;14.451;531.220;65.244
1,72753E+12;2024-09-28T16.21.27.228;1.850;0.525;-0.103;0.511;19.207;499.939;59.756
1,72753E+12;2024-09-28T16.21.27.238;1.860;0.406;-0.106;0.591;25.915;464.329;53.476
1,72753E+12;2024-09-28T16.21.27.248;1.870;0.363;-0.123;0.655;28.476;420.671;50.854
1,72753E+12;2024-09-28T16.21.27.258;1.880;0.254;-0.141;0.714;32.927;360.122;46.220
1,72753E+12;2024-09-28T16.21.27.268;1.890;0.133;-0.124;0.769;37.622;296.159;36.037
1,72753E+12;2024-09-28T16.21.27.278;1.900;0.139;-0.117;0.813;37.744;238.659;26.646
1,72753E+12;2024-09-28T16.21.27.288;1.910;0.108;-0.088;0.822;36.159;191.463;18.354
1,72753E+12;2024-09-28T16.21.27.298;1.920;0.088;-0.073;0.849;32.317;155.610;13.354
1,72753E+12;2024-09-28T16.21.27.308;1.930;0.086;-0.068;0.882;26.646;125.671;9.390
1,72753E+12;2024-09-28T16.21.27.318;1.940;0.040;-0.066;0.922;21.585;99.878;6.037
1,72753E+12;2024-09-28T16.21.27.328;1.950;0.022;-0.067;0.964;18.110;80.061;5.732
1,72753E+12;2024-09-28T16.21.27.338;1.960;0.046;-0.058;1.006;16.768;68.415;4.878
1,72753E+12;2024-09-28T16.21.27.348;1.970;0.054;-0.052;1.033;16.037;64.451;3.354
1,72753E+12;2024-09-28T16.21.27.358;1.980;0.031;-0.052;1.048;15.732;59.085;4.756
1,72753E+12;2024-09-28T16.21.27.368;1.990;-0.023;-0.055;1.061;16.768;46.524;6.951
1,72753E+12;2024-09-28T16.21.27.378;2.000;-0.037;-0.058;1.070;17.378;30.732;8.415
1,72753E+12;2024-09-28T16.21.27.388;2.010;-0.008;-0.055;1.066;15.183;16.037;7.805
1,72753E+12;2024-09-28T16.21.27.398;2.020;0.021;-0.052;1.063;11.341;5.427;4.329
1,72753E+12;2024-09-28T16.21.27.408;2.030;0.038;-0.045;1.060;7.744;-1.341;2.561
1,72753E+12;2024-09-28T16.21.27.418;2.040;0.046;-0.042;1.060;5.305;-6.402;2.744
1,72753E+12;2024-09-28T16.21.27.428;2.050;0.057;-0.039;1.059;3.780;-7.134;1.402
1,72753E+12;2024-09-28T16.21.27.438;2.060;0.082;-0.039;1.050;1.585;-4.024;0.732
1,72753E+12;2024-09-28T16.21.27.448;2.070;0.101;-0.035;1.033;-0.366;-0.305;0.183
1,72753E+12;2024-09-28T16.21.27.458;2.080;0.104;-0.037;1.010;-1.585;2.195;-0.671
1,72753E+12;2024-09-28T16.21.27.468;2.090;0.098;-0.037;0.989;-2.866;5.000;-1.707
1,72753E+12;2024-09-28T16.21.27.478;2.100;0.110;-0.040;0.973;-4.695;9.268;-2.500
1,72753E+12;2024-09-28T16.21.27.488;2.110;0.116;-0.050;0.968;-5.427;9.634;-2.256
1,72753E+12;2024-09-28T16.21.27.498;2.120;0.080;-0.060;0.971;-4.024;2.927;-1.951
1,72753E+12;2024-09-28T16.21.27.508;2.130;0.057;-0.066;0.967;-0.976;-7.622;-2.012
1,72753E+12;2024-09-28T16.21.27.518;2.140;0.068;-0.069;0.963;2.256;-15.671;-2.317
1,72753E+12;2024-09-28T16.21.27.528;2.150;0.095;-0.065;0.960;4.573;-16.341;-2.134
1,72753E+12;2024-09-28T16.21.27.538;2.160;0.128;-0.064;0.962;5.183;-11.280;-1.829
1,72753E+12;2024-09-28T16.21.27.548;2.170;0.146;-0.063;0.963;5.244;-4.207;-2.073
1,72753E+12;2024-09-28T16.21.27.558;2.180;0.134;-0.058;0.958;4.756;0.976;-1.524
1,72753E+12;2024-09-28T16.21.27.568;2.190;0.123;-0.061;0.959;4.329;1.646;-1.220
1,72753E+12;2024-09-28T16.21.27.578;2.200;0.117;-0.065;0.962;4.329;-0.549;-2.805
1,72753E+12;2024-09-28T16.21.27.588;2.210;0.102;-0.060;0.968;5.000;-4.207;-3.354
1,72753E+12;2024-09-28T16.21.27.598;2.220;0.090;-0.056;0.982;5.854;-7.256;-2.683
1,72753E+12;2024-09-28T16.21.27.608;2.230;0.117;-0.052;0.999;5.976;-6.585;-2.317
1,72753E+12;2024-09-28T16.21.27.618;2.240;0.141;-0.044;1.012;5.061;-2.622;-2.256
1,72753E+12;2024-09-28T16.21.27.628;2.250;0.128;-0.042;1.018;4.329;0.183;-1.585
1,72753E+12;2024-09-28T16.21.27.638;2.260;0.110;-0.040;1.015;3.780;-0.244;-1.098
1,72753E+12;2024-09-28T16.21.27.648;2.270;0.107;-0.040;1.010;3.110;-2.378;-1.220
1,72753E+12;2024-09-28T16.21.27.658;2.280;0.106;-0.037;1.000;1.890;-3.415;-1.524
1,72753E+12;2024-09-28T16.21.27.668;2.290;0.117;-0.036;1.000;0.366;-4.146;-0.976
1,72753E+12;2024-09-28T16.21.27.678;2.300;0.111;-0.039;1.012;-0.549;-7.378;-0.549
1,72753E+12;2024-09-28T16.21.27.688;2.310;0.094;-0.044;1.011;-0.549;-14.634;0.000
1,72753E+12;2024-09-28T16.21.27.698;2.320;0.078;-0.044;1.003;-0.427;-22.256;-0.122
1,72753E+12;2024-09-28T16.21.27.708;2.330;0.091;-0.041;0.994;-1.098;-27.622;-0.427
1,72753E+12;2024-09-28T16.21.27.718;2.340;0.104;-0.040;0.987;-2.195;-33.476;-0.427
1,72753E+12;2024-09-28T16.21.27.728;2.350;0.082;-0.041;0.974;-3.415;-44.939;-0.122
1,72753E+12;2024-09-28T16.21.27.738;2.360;0.055;-0.043;0.953;-5.122;-68.293;0.305
1,72753E+12;2024-09-28T16.21.27.748;2.370;0.008;-0.044;0.926;-7.744;-114.268;1.463
1,72753E+12;2024-09-28T16.21.27.758;2.380;-0.099;-0.050;0.903;-7.683;-185.976;2.744
1,72753E+12;2024-09-28T16.21.27.768;2.390;-0.153;-0.051;0.887;-6.768;-272.927;1.646
1,72753E+12;2024-09-28T16.21.27.778;2.400;-0.093;-0.045;0.877;-6.220;-361.037;-1.646
1,72753E+12;2024-09-28T16.21.27.788;2.410;0.030;-0.026;0.853;-7.073;-435.488;-8.476
1,72753E+12;2024-09-28T16.21.27.798;2.420;0.213;-0.021;0.816;-10.305;-493.476;-16.402
1,72753E+12;2024-09-28T16.21.27.808;2.430;0.372;-0.026;0.767;-16.951;-547.744;-25.854
1,72753E+12;2024-09-28T16.21.27.818;2.440;0.430;-0.042;0.704;-22.927;-607.683;-36.829
1,72753E+12;2024-09-28T16.21.27.828;2.450;0.474;-0.032;0.629;-26.890;-667.927;-49.329
1,72753E+12;2024-09-28T16.21.27.838;2.460;0.585;-0.058;0.523;-28.720;-731.037;-56.524
1,72753E+12;2024-09-28T16.21.27.848;2.470;0.660;-0.047;0.382;-27.683;-787.012;-66.707
1,72753E+12;2024-09-28T16.21.27.858;2.480;0.769;-0.022;0.203;-27.378;-832.317;-76.341
1,72753E+12;2024-09-28T16.21.27.868;2.490;0.874;-0.011;0.024;-28.354;-862.866;-83.537
1,72753E+12;2024-09-28T16.21.27.878;2.500;0.934;0.019;-0.129;-30.488;-872.073;-90.122
1,72753E+12;2024-09-28T16.21.27.888;2.510;1.012;0.062;-0.256;-31.524;-847.073;-96.585
1,72753E+12;2024-09-28T16.21.27.898;2.520;1.102;0.058;-0.339;-30.488;-786.890;-95.366
1,72753E+12;2024-09-28T16.21.27.908;2.530;1.136;0.055;-0.393;-27.378;-700.305;-85.549
1,72753E+12;2024-09-28T16.21.27.918;2.540;1.130;0.053;-0.418;-22.744;-599.817;-71.159
1,72753E+12;2024-09-28T16.21.27.928;2.550;1.102;0.066;-0.459;-19.756;-492.561;-55.122
1,72753E+12;2024-09-28T16.21.27.938;2.560;1.077;0.092;-0.507;-19.451;-386.402;-37.134
1,72753E+12;2024-09-28T16.21.27.948;2.570;1.055;0.114;-0.559;-22.256;-294.573;-20.549
1,72753E+12;2024-09-28T16.21.27.958;2.580;0.993;0.148;-0.616;-27.195;-214.146;-10.854
1,72753E+12;2024-09-28T16.21.27.968;2.590;0.986;0.162;-0.646;-33.902;-139.085;-6.341
1,72753E+12;2024-09-28T16.21.27.978;2.600;1.007;0.162;-0.667;-38.902;-70.793;-4.268
1,72753E+12;2024-09-28T16.21.27.988;2.610;0.957;0.156;-0.695;-41.341;-16.707;-3.659
1,72753E+12;2024-09-28T16.21.27.998;2.620;0.861;0.151;-0.721;-41.707;17.683;-2.500
1,72753E+12;2024-09-28T16.21.28.008;2.630;0.819;0.149;-0.744;-40.244;35.244;-1.037
1,72753E+12;2024-09-28T16.21.28.018;2.640;0.850;0.147;-0.760;-36.890;43.415;-0.671
1,72753E+12;2024-09-28T16.21.28.028;2.650;0.893;0.133;-0.763;-31.159;45.671;0.732
1,72753E+12;2024-09-28T16.21.28.038;2.660;0.880;0.107;-0.752;-23.232;31.402;3.841
1,72753E+12;2024-09-28T16.21.28.048;2.670;0.776;0.100;-0.753;-15.305;1.037;4.024
1,72753E+12;2024-09-28T16.21.28.058;2.680;0.756;0.105;-0.757;-9.817;-27.683;-0.244
1,72753E+12;2024-09-28T16.21.28.068;2.690;0.866;0.096;-0.748;-5.793;-43.720;-3.963
1,72753E+12;2024-09-28T16.21.28.078;2.700;0.900;0.088;-0.745;-2.683;-45.793;-6.890
1,72753E+12;2024-09-28T16.21.28.088;2.710;0.875;0.086;-0.743;-0.305;-35.854;-7.622
1,72753E+12;2024-09-28T16.21.28.098;2.720;0.886;0.087;-0.732;2.134;-16.341;-5.061
1,72753E+12;2024-09-28T16.21.28.108;2.730;0.897;0.085;-0.718;4.146;8.780;-0.305
1,72753E+12;2024-09-28T16.21.28.118;2.740;0.874;0.085;-0.700;5.244;35.427;5.244
1,72753E+12;2024-09-28T16.21.28.128;2.750;0.856;0.091;-0.688;5.549;63.293;11.037
1,72753E+12;2024-09-28T16.21.28.138;2.760;0.878;0.096;-0.669;5.061;90.183;15.427
1,72753E+12;2024-09-28T16.21.28.148;2.770;0.889;0.095;-0.651;3.841;112.378;17.439
1,72753E+12;2024-09-28T16.21.28.158;2.780;0.857;0.094;-0.637;2.073;127.500;17.683
1,72753E+12;2024-09-28T16.21.28.168;2.790;0.829;0.090;-0.613;0.549;134.207;17.195
1,72753E+12;2024-09-28T16.21.28.178;2.800;0.819;0.092;-0.605;-1.463;140.549;14.024
1,72753E+12;2024-09-28T16.21.28.188;2.810;0.864;0.103;-0.589;-2.866;151.463;9.573
1,72753E+12;2024-09-28T16.21.28.198;2.820;0.905;0.105;-0.557;-2.744;166.524;6.890
1,72753E+12;2024-09-28T16.21.28.208;2.830;0.872;0.102;-0.536;-2.378;183.841;6.463
1,72753E+12;2024-09-28T16.21.28.218;2.840;0.865;0.112;-0.526;-1.951;205.122;8.598
1,72753E+12;2024-09-28T16.21.28.228;2.850;0.912;0.130;-0.509;-2.622;232.439;14.329
1,72753E+12;2024-09-28T16.21.28.238;2.860;0.977;0.139;-0.487;-4.512;262.439;21.159
1,72753E+12;2024-09-28T16.21.28.248;2.870;1.019;0.150;-0.472;-7.134;295.854;26.829
1,72753E+12;2024-09-28T16.21.28.258;2.880;1.064;0.156;-0.438;-9.939;334.024;32.378
1,72753E+12;2024-09-28T16.21.28.268;2.890;1.132;0.137;-0.394;-11.646;375.183;37.744
1,72753E+12;2024-09-28T16.21.28.278;2.900;1.151;0.116;-0.343;-12.439;416.646;43.354
1,72753E+12;2024-09-28T16.21.28.288;2.910;1.136;0.102;-0.298;-12.561;458.293;49.939
1,72753E+12;2024-09-28T16.21.28.298;2.920;1.155;0.097;-0.243;-12.988;503.537;56.646
1,72753E+12;2024-09-28T16.21.28.308;2.930;1.199;0.088;-0.185;-14.634;554.634;63.902
1,72753E+12;2024-09-28T16.21.28.318;2.940;1.238;0.096;-0.114;-16.951;613.537;71.159
1,72753E+12;2024-09-28T16.21.28.328;2.950;1.261;0.083;-0.046;-18.537;671.159;79.146
1,72753E+12;2024-09-28T16.21.28.338;2.960;1.186;0.055;0.028;-19.634;709.146;87.073
1,72753E+12;2024-09-28T16.21.28.348;2.970;0.985;0.050;0.088;-20.732;723.110;93.415
1,72753E+12;2024-09-28T16.21.28.358;2.980;0.837;0.055;0.164;-22.317;725.000;96.585
1,72753E+12;2024-09-28T16.21.28.368;2.990;0.786;0.009;0.283;-20.488;721.098;98.354
1,72753E+12;2024-09-28T16.21.28.378;3.000;0.680;-0.011;0.406;-16.951;705.061;99.207
1,72753E+12;2024-09-28T16.21.28.388;3.010;0.499;-0.040;0.511;-15.183;662.439;98.841
1,72753E+12;2024-09-28T16.21.28.398;3.020;0.278;-0.070;0.599;-12.317;587.378;93.598
1,72753E+12;2024-09-28T16.21.28.408;3.030;0.090;-0.076;0.688;-11.524;488.720;81.280
1,72753E+12;2024-09-28T16.21.28.418;3.040;-0.025;-0.073;0.779;-11.707;380.488;66.341
1,72753E+12;2024-09-28T16.21.28.428;3.050;-0.077;-0.087;0.855;-7.866;273.110;53.110
1,72753E+12;2024-09-28T16.21.28.438;3.060;-0.117;-0.115;0.927;0.183;180.488;42.683
1,72753E+12;2024-09-28T16.21.28.448;3.070;-0.099;-0.117;0.973;10.183;115.427;32.683
1,72753E+12;2024-09-28T16.21.28.458;3.080;-0.014;-0.102;1.000;17.561;88.659;24.024
1,72753E+12;2024-09-28T16.21.28.468;3.090;0.064;-0.086;0.995;17.805;84.268;21.524
1,72753E+12;2024-09-28T16.21.28.478;3.100;0.034;-0.073;0.987;15.610;81.890;23.171
1,72753E+12;2024-09-28T16.21.28.488;3.110;-0.001;-0.052;0.995;13.293;74.146;25.610
1,72753E+12;2024-09-28T16.21.28.498;3.120;-0.012;-0.034;0.994;10.549;61.890;26.037
1,72753E+12;2024-09-28T16.21.28.508;3.130;-0.016;-0.032;0.996;7.927;46.951;23.598
1,72753E+12;2024-09-28T16.21.28.518;3.140;-0.034;-0.038;1.009;6.159;31.890;19.390
1,72753E+12;2024-09-28T16.21.28.528;3.150;-0.041;-0.044;1.028;5.793;18.354;15.427
1,72753E+12;2024-09-28T16.21.28.538;3.160;-0.025;-0.043;1.033;6.037;10.610;11.463
1,72753E+12;2024-09-28T16.21.28.548;3.170;-0.001;-0.039;1.026;5.732;9.451;10.183
1,72753E+12;2024-09-28T16.21.28.558;3.180;-0.005;-0.036;1.015;5.122;8.537;10.000
1,72753E+12;2024-09-28T16.21.28.568;3.190;-0.039;-0.031;1.009;4.878;4.573;9.695
1,72753E+12;2024-09-28T16.21.28.578;3.200;-0.050;-0.032;0.995;4.695;-0.183;8.902
1,72753E+12;2024-09-28T16.21.28.588;3.210;-0.045;-0.037;0.982;4.146;-3.171;8.598
1,72753E+12;2024-09-28T16.21.28.598;3.220;-0.031;-0.040;0.984;3.902;-4.695;7.805
1,72753E+12;2024-09-28T16.21.28.608;3.230;-0.014;-0.043;0.983;4.024;-4.207;6.280
1,72753E+12;2024-09-28T16.21.28.618;3.240;-0.001;-0.050;0.983;4.146;-2.866;5.122
1,72753E+12;2024-09-28T16.21.28.628;3.250;-0.012;-0.054;0.980;4.329;-2.195;4.512
1,72753E+12;2024-09-28T16.21.28.638;3.260;-0.016;-0.059;0.974;3.902;-0.671;3.537
1,72753E+12;2024-09-28T16.21.28.648;3.270;0.008;-0.062;0.972;2.561;3.293;2.073
1,72753E+12;2024-09-28T16.21.28.658;3.280;0.005;-0.065;0.966;0.976;6.463;1.951
1,72753E+12;2024-09-28T16.21.28.668;3.290;-0.006;-0.077;0.967;0.061;6.402;1.768
1,72753E+12;2024-09-28T16.21.28.678;3.300;-0.014;-0.084;0.975;0.427;1.951;1.220
1,72753E+12;2024-09-28T16.21.28.688;3.310;-0.027;-0.092;0.979;2.317;-6.463;0.610
1,72753E+12;2024-09-28T16.21.28.698;3.320;-0.025;-0.089;0.990;4.878;-12.195;-0.671
1,72753E+12;2024-09-28T16.21.28.708;3.330;0.001;-0.078;0.992;5.549;-9.878;-1.463
1,72753E+12;2024-09-28T16.21.28.718;3.340;0.031;-0.069;0.991;4.512;-2.622;-2.012
1,72753E+12;2024-09-28T16.21.28.728;3.350;0.035;-0.067;0.998;2.988;2.134;-2.378
1,72753E+12;2024-09-28T16.21.28.738;3.360;0.006;-0.065;1.003;2.805;-0.183;-2.500
1,72753E+12;2024-09-28T16.21.28.748;3.370;-0.019;-0.069;1.006;3.476;-6.402;-2.805
1,72753E+12;2024-09-28T16.21.28.758;3.380;-0.000;-0.066;1.007;3.476;-10.976;-3.841
1,72753E+12;2024-09-28T16.21.28.768;3.390;0.031;-0.054;1.003;2.988;-11.220;-5.061
1,72753E+12;2024-09-28T16.21.28.778;3.400;0.042;-0.049;1.001;1.890;-9.390;-5.244
1,72753E+12;2024-09-28T16.21.28.788;3.410;0.037;-0.050;1.007;1.159;-9.329;-5.122
1,72753E+12;2024-09-28T16.21.28.798;3.420;0.029;-0.046;1.011;1.707;-12.561;-4.634
1,72753E+12;2024-09-28T16.21.28.808;3.430;0.031;-0.039;1.006;2.622;-15.976;-4.695
1,72753E+12;2024-09-28T16.21.28.818;3.440;0.040;-0.033;1.000;3.232;-17.012;-5.000
1,72753E+12;2024-09-28T16.21.28.828;3.450;0.039;-0.029;1.000;3.720;-18.354;-5.183
1,72753E+12;2024-09-28T16.21.28.838;3.460;0.034;-0.026;1.000;5.244;-20.610;-5.488
1,72753E+12;2024-09-28T16.21.28.848;3.470;0.042;-0.021;0.995;6.220;-21.280;-5.549
1,72753E+12;2024-09-28T16.21.28.858;3.480;0.066;-0.016;0.983;5.671;-19.817;-5.732
1,72753E+12;2024-09-28T16.21.28.868;3.490;0.073;-0.018;0.980;4.268;-19.329;-5.610
1,72753E+12;2024-09-28T16.21.28.878;3.500;0.050;-0.022;0.983;4.268;-24.024;-5.366
1,72753E+12;2024-09-28T16.21.28.888;3.510;0.032;-0.026;0.985;5.183;-36.220;-5.061
1,72753E+12;2024-09-28T16.21.28.898;3.520;0.014;-0.034;0.987;8.171;-54.329;-5.122
1,72753E+12;2024-09-28T16.21.28.908;3.530;0.022;-0.038;0.988;11.524;-67.805;-6.402
1,72753E+12;2024-09-28T16.21.28.918;3.540;0.066;-0.039;0.973;12.134;-75.793;-6.829
1,72753E+12;2024-09-28T16.21.28.928;3.550;0.087;-0.047;0.960;10.061;-92.134;-5.854
1,72753E+12;2024-09-28T16.21.28.938;3.560;0.051;-0.060;0.957;9.817;-131.402;-5.549
1,72753E+12;2024-09-28T16.21.28.948;3.570;-0.027;-0.073;0.943;10.671;-200.183;-7.256
1,72753E+12;2024-09-28T16.21.28.958;3.580;-0.099;-0.088;0.918;14.207;-302.256;-9.451
1,72753E+12;2024-09-28T16.21.28.968;3.590;-0.137;-0.068;0.884;20.671;-414.329;-20.549
1,72753E+12;2024-09-28T16.21.28.978;3.600;-0.047;-0.039;0.812;23.476;-511.707;-33.293
1,72753E+12;2024-09-28T16.21.28.988;3.610;0.117;-0.026;0.734;22.988;-595.183;-39.878
1,72753E+12;2024-09-28T16.21.28.998;3.620;0.243;-0.036;0.662;23.780;-672.439;-45.732
1,72753E+12;2024-09-28T16.21.29.008;3.630;0.330;-0.021;0.587;25.976;-745.305;-55.061
1,72753E+12;2024-09-28T16.21.29.018;3.640;0.422;-0.007;0.478;29.146;-821.402;-62.134
1,72753E+12;2024-09-28T16.21.29.028;3.650;0.497;0.024;0.333;29.634;-889.939;-71.098
1,72753E+12;2024-09-28T16.21.29.038;3.660;0.632;0.071;0.121;27.561;-948.598;-79.512
1,72753E+12;2024-09-28T16.21.29.048;3.670;0.733;0.090;-0.088;21.951;-990.671;-82.988
1,72753E+12;2024-09-28T16.21.29.058;3.680;0.807;0.136;-0.300;12.744;-999.756;-85.305
1,72753E+12;2024-09-28T16.21.29.068;3.690;0.983;0.179;-0.492;3.780;-969.512;-85.793
1,72753E+12;2024-09-28T16.21.29.078;3.700;1.148;0.198;-0.630;-8.110;-880.793;-82.439
1,72753E+12;2024-09-28T16.21.29.088;3.710;1.380;0.235;-0.756;-17.378;-708.232;-76.280
1,72753E+12;2024-09-28T16.21.29.098;3.720;1.789;0.196;-0.701;-21.951;-466.280;-58.598
1,72753E+12;2024-09-28T16.21.29.108;3.730;1.985;0.134;-0.535;-20.122;-198.354;-30.671
1,72753E+12;2024-09-28T16.21.29.118;3.740;1.809;0.092;-0.472;-14.817;36.159;3.293
1,72753E+12;2024-09-28T16.21.29.128;3.750;1.438;0.088;-0.528;-11.707;179.817;37.561
1,72753E+12;2024-09-28T16.21.29.138;3.760;1.042;0.127;-0.587;-12.439;226.829;54.817
1,72753E+12;2024-09-28T16.21.29.148;3.770;0.790;0.164;-0.580;-15.976;196.585;53.354
1,72753E+12;2024-09-28T16.21.29.158;3.780;0.685;0.170;-0.529;-18.902;121.341;38.963
1,72753E+12;2024-09-28T16.21.29.168;3.790;0.683;0.164;-0.487;-21.890;39.451;20.122
1,72753E+12;2024-09-28T16.21.29.178;3.800;0.797;0.130;-0.467;-22.561;-22.622;4.024
1,72753E+12;2024-09-28T16.21.29.188;3.810;0.939;0.089;-0.459;-20.122;-56.890;-5.610
1,72753E+12;2024-09-28T16.21.29.198;3.820;0.963;0.067;-0.446;-16.280;-70.122;-9.756
1,72753E+12;2024-09-28T16.21.29.208;3.830;0.930;0.069;-0.449;-11.280;-66.098;-9.085
1,72753E+12;2024-09-28T16.21.29.218;3.840;0.981;0.075;-0.449;-4.939;-48.537;-2.622
1,72753E+12;2024-09-28T16.21.29.228;3.850;1.030;0.080;-0.442;0.732;-26.646;6.159
1,72753E+12;2024-09-28T16.21.29.238;3.860;0.985;0.100;-0.441;4.146;-11.951;12.317
1,72753E+12;2024-09-28T16.21.29.248;3.870;0.903;0.117;-0.457;4.878;-8.659;14.878
1,72753E+12;2024-09-28T16.21.29.258;3.880;0.843;0.125;-0.481;2.683;-12.317;16.463
1,72753E+12;2024-09-28T16.21.29.268;3.890;0.816;0.128;-0.502;-1.463;-17.195;17.500
1,72753E+12;2024-09-28T16.21.29.278;3.900;0.847;0.134;-0.519;-7.012;-11.829;16.098
1,72753E+12;2024-09-28T16.21.29.288;3.910;0.948;0.127;-0.529;-12.500;11.159;15.183
1,72753E+12;2024-09-28T16.21.29.298;3.920;1.029;0.112;-0.508;-15.549;43.841;15.915
1,72753E+12;2024-09-28T16.21.29.308;3.930;1.025;0.081;-0.461;-13.841;67.988;18.415
1,72753E+12;2024-09-28T16.21.29.318;3.940;0.927;0.057;-0.427;-8.598;70.610;21.037
1,72753E+12;2024-09-28T16.21.29.328;3.950;0.836;0.066;-0.410;-3.171;58.049;20.976
1,72753E+12;2024-09-28T16.21.29.338;3.960;0.861;0.082;-0.402;0.000;45.732;19.756
1,72753E+12;2024-09-28T16.21.29.348;3.970;0.943;0.096;-0.405;0.732;43.049;18.171
1,72753E+12;2024-09-28T16.21.29.358;3.980;0.993;0.105;-0.420;-0.305;53.780;15.732
1,72753E+12;2024-09-28T16.21.29.368;3.990;1.033;0.101;-0.419;-2.744;77.744;14.329
1,72753E+12;2024-09-28T16.21.29.378;4.000;1.075;0.108;-0.414;-6.951;122.500;14.390
1,72753E+12;2024-09-28T16.21.29.388;4.010;1.163;0.109;-0.392;-11.585;189.268;17.988
1,72753E+12;2024-09-28T16.21.29.398;4.020;1.264;0.101;-0.344;-13.902;275.122;23.415
1,72753E+12;2024-09-28T16.21.29.408;4.030;1.314;0.080;-0.290;-12.866;370.427;33.476
1,72753E+12;2024-09-28T16.21.29.418;4.040;1.293;0.059;-0.245;-9.756;462.378;48.110
1,72753E+12;2024-09-28T16.21.29.428;4.050;1.243;0.059;-0.212;-7.317;545.000;64.024
1,72753E+12;2024-09-28T16.21.29.438;4.060;1.232;0.075;-0.186;-8.476;623.902;76.220
1,72753E+12;2024-09-28T16.21.29.448;4.070;1.286;0.098;-0.156;-12.195;704.207;84.085
1,72753E+12;2024-09-28T16.21.29.458;4.080;1.345;0.093;-0.101;-15.122;774.207;89.146
1,72753E+12;2024-09-28T16.21.29.468;4.090;1.255;0.064;-0.061;-16.159;811.037;91.585
1,72753E+12;2024-09-28T16.21.29.478;4.100;0.949;0.054;-0.007;-17.256;813.293;94.268
1,72753E+12;2024-09-28T16.21.29.488;4.110;0.737;0.042;0.123;-16.768;794.451;99.756
1,72753E+12;2024-09-28T16.21.29.498;4.120;0.683;-0.028;0.300;-10.793;757.317;102.683
1,72753E+12;2024-09-28T16.21.29.508;4.130;0.566;-0.034;0.456;-5.061;701.768;96.098
1,72753E+12;2024-09-28T16.21.29.518;4.140;0.431;-0.062;0.583;0.854;625.122;87.073
1,72753E+12;2024-09-28T16.21.29.528;4.150;0.255;-0.081;0.673;5.732;522.622;76.280
1,72753E+12;2024-09-28T16.21.29.538;4.160;0.041;-0.095;0.772;7.500;404.878;66.585
1,72753E+12;2024-09-28T16.21.29.548;4.170;-0.059;-0.077;0.845;8.354;284.207;53.049
1,72753E+12;2024-09-28T16.21.29.558;4.180;-0.020;-0.075;0.897;9.939;178.841;37.805
1,72753E+12;2024-09-28T16.21.29.568;4.190;-0.018;-0.071;0.934;11.768;100.122;26.037
1,72753E+12;2024-09-28T16.21.29.578;4.200;-0.039;-0.059;0.962;13.110;50.305;19.329
1,72753E+12;2024-09-28T16.21.29.588;4.210;0.006;-0.061;0.980;14.573;33.963;16.280
1,72753E+12;2024-09-28T16.21.29.598;4.220;0.134;-0.049;0.986;11.890;48.659;16.585
1,72753E+12;2024-09-28T16.21.29.608;4.230;0.223;-0.051;0.986;4.146;73.841;20.244
1,72753E+12;2024-09-28T16.21.29.618;4.240;0.179;-0.050;1.004;-2.439;89.207;22.744
1,72753E+12;2024-09-28T16.21.29.628;4.250;0.076;-0.052;1.011;-4.817;85.610;24.573
1,72753E+12;2024-09-28T16.21.29.638;4.260;-0.005;-0.062;1.003;-5.305;71.402;24.390
1,72753E+12;2024-09-28T16.21.29.648;4.270;-0.000;-0.073;1.005;-4.878;54.939;22.317
1,72753E+12;2024-09-28T16.21.29.658;4.280;0.037;-0.078;1.007;-4.634;41.280;17.988
1,72753E+12;2024-09-28T16.21.29.668;4.290;0.067;-0.080;1.006;-4.512;28.780;12.561
1,72753E+12;2024-09-28T16.21.29.678;4.300;0.069;-0.074;0.996;-4.024;17.744;7.134
1,72753E+12;2024-09-28T16.21.29.688;4.310;0.056;-0.065;0.971;-3.902;10.305;3.780
1,72753E+12;2024-09-28T16.21.29.698;4.320;0.019;-0.058;0.957;-5.244;8.537;3.659
1,72753E+12;2024-09-28T16.21.29.708;4.330;0.023;-0.064;0.962;-6.341;11.463;4.695
1,72753E+12;2024-09-28T16.21.29.718;4.340;0.062;-0.071;0.973;-7.073;17.500;4.207
1,72753E+12;2024-09-28T16.21.29.728;4.350;0.068;-0.083;0.979;-6.646;19.573;4.207
1,72753E+12;2024-09-28T16.21.29.738;4.360;0.033;-0.094;0.981;-4.329;14.451;3.841
1,72753E+12;2024-09-28T16.21.29.748;4.370;0.010;-0.099;0.972;-1.890;5.549;2.256
1,72753E+12;2024-09-28T16.21.29.758;4.380;0.021;-0.099;0.961;0.244;-4.756;1.524
1,72753E+12;2024-09-28T16.21.29.768;4.390;0.027;-0.098;0.955;2.256;-12.500;0.793
1,72753E+12;2024-09-28T16.21.29.778;4.400;0.055;-0.095;0.950;2.866;-15.061;0.061
1,72753E+12;2024-09-28T16.21.29.788;4.410;0.082;-0.089;0.951;2.561;-12.622;-0.183
1,72753E+12;2024-09-28T16.21.29.798;4.420;0.090;-0.087;0.961;2.317;-5.976;-0.793
1,72753E+12;2024-09-28T16.21.29.808;4.430;0.105;-0.086;0.969;1.463;3.232;-0.549
1,72753E+12;2024-09-28T16.21.29.818;4.440;0.116;-0.092;0.979;;;
1,72753E+12;2024-09-28T16.21.29.828;4.450;0.088;-0.096;0.987;;;
