epoc (ms);timestamp (+0300);elapsed (s);acc_x;acc_y;acc_z;gyr_x;gyr_y;gyr_z
1,72753E+12;2024-09-28T16.26.28.916;0.000;0.017;-0.021;1.004;0.366;-17.988;-1.890
1,72753E+12;2024-09-28T16.26.28.926;0.010;0.065;-0.014;0.995;0.793;-21.768;-1.829
1,72753E+12;2024-09-28T16.26.28.936;0.020;0.147;-0.002;0.975;3.476;-32.012;-1.829
1,72753E+12;2024-09-28T16.26.28.946;0.030;0.217;0.001;0.962;4.268;-30.061;-2.134
1,72753E+12;2024-09-28T16.26.28.956;0.040;0.229;0.004;0.957;1.646;-14.878;-2.622
1,72753E+12;2024-09-28T16.26.28.966;0.050;0.188;-0.004;0.958;-2.134;0.915;-2.500
1,72753E+12;2024-09-28T16.26.28.976;0.060;0.118;-0.018;0.965;-4.573;5.854;-1.585
1,72753E+12;2024-09-28T16.26.28.986;0.070;0.059;-0.029;0.971;-4.451;-3.171;-1.707
1,72753E+12;2024-09-28T16.26.28.996;0.080;0.065;-0.035;0.978;-2.561;-19.695;-2.195
1,72753E+12;2024-09-28T16.26.29.006;0.090;0.111;-0.035;0.980;0.061;-35.793;-2.195
1,72753E+12;2024-09-28T16.26.29.016;0.100;0.127;-0.029;0.967;2.561;-49.451;-3.415
1,72753E+12;2024-09-28T16.26.29.026;0.110;0.098;-0.030;0.947;4.634;-64.512;-5.000
1,72753E+12;2024-09-28T16.26.29.036;0.120;0.041;-0.032;0.922;6.524;-88.049;-5.488
1,72753E+12;2024-09-28T16.26.29.046;0.130;-0.032;-0.040;0.916;8.598;-129.451;-3.902
1,72753E+12;2024-09-28T16.26.29.056;0.140;-0.073;-0.044;0.901;13.598;-192.561;-1.463
1,72753E+12;2024-09-28T16.26.29.066;0.150;-0.082;-0.047;0.874;20.976;-275.915;-1.402
1,72753E+12;2024-09-28T16.26.29.076;0.160;-0.011;-0.029;0.828;30.488;-368.293;-3.354
1,72753E+12;2024-09-28T16.26.29.086;0.170;0.167;-0.016;0.769;40.122;-448.659;-9.146
1,72753E+12;2024-09-28T16.26.29.096;0.180;0.321;-0.028;0.694;47.012;-509.390;-14.939
1,72753E+12;2024-09-28T16.26.29.106;0.190;0.379;-0.015;0.615;52.073;-561.890;-17.988
1,72753E+12;2024-09-28T16.26.29.116;0.200;0.428;0.022;0.534;56.159;-617.439;-23.902
1,72753E+12;2024-09-28T16.26.29.126;0.210;0.491;0.056;0.426;59.756;-679.939;-32.439
1,72753E+12;2024-09-28T16.26.29.136;0.220;0.515;0.073;0.286;62.439;-749.451;-40.366
1,72753E+12;2024-09-28T16.26.29.146;0.230;0.508;0.118;0.084;63.537;-828.415;-47.195
1,72753E+12;2024-09-28T16.26.29.156;0.240;0.598;0.136;-0.146;62.622;-905.305;-55.488
1,72753E+12;2024-09-28T16.26.29.166;0.250;0.743;0.153;-0.367;60.488;-963.293;-60.183
1,72753E+12;2024-09-28T16.26.29.176;0.260;0.851;0.169;-0.572;57.256;-988.110;-61.463
1,72753E+12;2024-09-28T16.26.29.186;0.270;0.909;0.188;-0.768;53.110;-980.854;-57.622
1,72753E+12;2024-09-28T16.26.29.196;0.280;0.935;0.219;-0.941;48.476;-950.122;-52.134
1,72753E+12;2024-09-28T16.26.29.206;0.290;1.046;0.202;-1.057;40.854;-890.000;-47.561
1,72753E+12;2024-09-28T16.26.29.216;0.300;1.183;0.180;-1.053;33.902;-791.646;-39.573
1,72753E+12;2024-09-28T16.26.29.226;0.310;1.242;0.209;-1.046;25.671;-662.012;-25.793
1,72753E+12;2024-09-28T16.26.29.236;0.320;1.277;0.201;-1.047;14.024;-509.756;-14.329
1,72753E+12;2024-09-28T16.26.29.246;0.330;1.179;0.174;-1.019;1.585;-351.402;-7.012
1,72753E+12;2024-09-28T16.26.29.256;0.340;0.942;0.147;-1.022;-9.024;-209.817;3.171
1,72753E+12;2024-09-28T16.26.29.266;0.350;0.699;0.147;-1.039;-17.622;-108.232;10.610
1,72753E+12;2024-09-28T16.26.29.276;0.360;0.502;0.151;-1.033;-24.146;-57.683;13.476
1,72753E+12;2024-09-28T16.26.29.286;0.370;0.430;0.148;-1.015;-29.146;-44.817;10.671
1,72753E+12;2024-09-28T16.26.29.296;0.380;0.426;0.125;-0.987;-30.000;-51.463;5.183
1,72753E+12;2024-09-28T16.26.29.306;0.390;0.425;0.120;-0.970;-25.366;-62.744;0.610
1,72753E+12;2024-09-28T16.26.29.316;0.400;0.461;0.118;-0.975;-17.439;-69.634;-4.024
1,72753E+12;2024-09-28T16.26.29.326;0.410;0.521;0.129;-0.995;-8.415;-66.280;-6.707
1,72753E+12;2024-09-28T16.26.29.336;0.420;0.564;0.142;-1.012;0.061;-51.585;-7.073
1,72753E+12;2024-09-28T16.26.29.346;0.430;0.564;0.152;-1.024;6.159;-30.000;-5.976
1,72753E+12;2024-09-28T16.26.29.356;0.440;0.528;0.160;-1.022;9.329;-9.573;-3.537
1,72753E+12;2024-09-28T16.26.29.366;0.450;0.490;0.157;-1.000;9.939;4.390;-1.768
1,72753E+12;2024-09-28T16.26.29.376;0.460;0.489;0.151;-0.969;9.451;13.841;-1.098
1,72753E+12;2024-09-28T16.26.29.386;0.470;0.495;0.150;-0.939;9.207;19.451;-0.854
1,72753E+12;2024-09-28T16.26.29.396;0.480;0.498;0.143;-0.911;9.268;23.232;-1.463
1,72753E+12;2024-09-28T16.26.29.406;0.490;0.526;0.147;-0.892;9.024;27.134;-1.707
1,72753E+12;2024-09-28T16.26.29.416;0.500;0.565;0.150;-0.883;8.720;35.061;-1.829
1,72753E+12;2024-09-28T16.26.29.426;0.510;0.598;0.149;-0.879;7.683;48.659;-1.098
1,72753E+12;2024-09-28T16.26.29.436;0.520;0.627;0.151;-0.876;5.854;68.049;0.732
1,72753E+12;2024-09-28T16.26.29.446;0.530;0.660;0.157;-0.877;2.988;92.012;3.598
1,72753E+12;2024-09-28T16.26.29.456;0.540;0.704;0.160;-0.883;-1.463;121.341;7.256
1,72753E+12;2024-09-28T16.26.29.466;0.550;0.780;0.169;-0.894;-7.195;159.268;11.341
1,72753E+12;2024-09-28T16.26.29.476;0.560;0.861;0.172;-0.896;-13.841;207.378;15.732
1,72753E+12;2024-09-28T16.26.29.486;0.570;0.904;0.172;-0.879;-20.549;262.073;20.854
1,72753E+12;2024-09-28T16.26.29.496;0.580;0.905;0.168;-0.843;-26.707;316.280;27.378
1,72753E+12;2024-09-28T16.26.29.506;0.590;0.894;0.160;-0.807;-30.976;362.439;34.146
1,72753E+12;2024-09-28T16.26.29.516;0.600;0.901;0.168;-0.773;-33.415;397.988;39.512
1,72753E+12;2024-09-28T16.26.29.526;0.610;0.966;0.182;-0.725;-36.280;428.293;42.622
1,72753E+12;2024-09-28T16.26.29.536;0.620;1.041;0.186;-0.688;-39.329;457.500;44.756
1,72753E+12;2024-09-28T16.26.29.546;0.630;1.095;0.174;-0.632;-42.256;489.573;45.244
1,72753E+12;2024-09-28T16.26.29.556;0.640;1.100;0.163;-0.577;-43.598;523.232;45.854
1,72753E+12;2024-09-28T16.26.29.566;0.650;1.085;0.164;-0.524;-43.841;557.073;48.659
1,72753E+12;2024-09-28T16.26.29.576;0.660;1.108;0.175;-0.460;-46.463;591.037;52.500
1,72753E+12;2024-09-28T16.26.29.586;0.670;1.117;0.171;-0.395;-50.183;623.232;56.585
1,72753E+12;2024-09-28T16.26.29.596;0.680;1.108;0.181;-0.334;-54.451;654.207;59.390
1,72753E+12;2024-09-28T16.26.29.606;0.690;1.106;0.173;-0.256;-61.341;686.037;60.427
1,72753E+12;2024-09-28T16.26.29.616;0.700;1.018;0.145;-0.172;-68.537;712.683;61.402
1,72753E+12;2024-09-28T16.26.29.626;0.710;0.839;0.130;-0.086;-75.122;723.902;63.232
1,72753E+12;2024-09-28T16.26.29.636;0.720;0.690;0.086;0.063;-79.207;715.244;63.720
1,72753E+12;2024-09-28T16.26.29.646;0.730;0.598;0.025;0.238;-77.073;690.549;64.756
1,72753E+12;2024-09-28T16.26.29.656;0.740;0.546;-0.017;0.385;-68.354;660.793;67.683
1,72753E+12;2024-09-28T16.26.29.666;0.750;0.522;-0.031;0.507;-55.915;631.220;70.671
1,72753E+12;2024-09-28T16.26.29.676;0.760;0.490;-0.059;0.605;-42.683;598.049;70.061
1,72753E+12;2024-09-28T16.26.29.686;0.770;0.348;-0.070;0.669;-30.244;554.390;64.695
1,72753E+12;2024-09-28T16.26.29.696;0.780;0.080;-0.075;0.755;-23.110;483.293;55.549
1,72753E+12;2024-09-28T16.26.29.706;0.790;-0.031;-0.078;0.823;-17.256;389.024;48.232
1,72753E+12;2024-09-28T16.26.29.716;0.800;0.031;-0.086;0.872;-10.915;294.146;41.707
1,72753E+12;2024-09-28T16.26.29.726;0.810;0.088;-0.078;0.919;-7.500;214.268;35.183
1,72753E+12;2024-09-28T16.26.29.736;0.820;0.099;-0.066;0.951;-5.061;154.146;28.049
1,72753E+12;2024-09-28T16.26.29.746;0.830;0.082;-0.070;0.974;-2.134;113.354;20.305
1,72753E+12;2024-09-28T16.26.29.756;0.840;0.061;-0.068;0.997;-0.061;87.988;14.695
1,72753E+12;2024-09-28T16.26.29.766;0.850;0.038;-0.062;1.009;1.402;70.244;12.561
1,72753E+12;2024-09-28T16.26.29.776;0.860;0.046;-0.057;0.996;2.683;56.159;11.707
1,72753E+12;2024-09-28T16.26.29.786;0.870;0.054;-0.047;0.989;2.805;47.256;10.244
1,72753E+12;2024-09-28T16.26.29.796;0.880;0.037;-0.045;0.983;2.012;40.000;9.390
1,72753E+12;2024-09-28T16.26.29.806;0.890;0.032;-0.046;0.973;1.220;31.402;8.293
1,72753E+12;2024-09-28T16.26.29.816;0.900;0.033;-0.047;0.978;0.793;19.451;7.195
1,72753E+12;2024-09-28T16.26.29.826;0.910;0.023;-0.050;0.988;1.463;4.451;5.793
1,72753E+12;2024-09-28T16.26.29.836;0.920;0.017;-0.052;0.983;3.415;-12.256;3.598
1,72753E+12;2024-09-28T16.26.29.846;0.930;0.066;-0.044;0.972;6.220;-24.146;2.195
1,72753E+12;2024-09-28T16.26.29.856;0.940;0.143;-0.039;0.963;7.866;-21.280;0.305
1,72753E+12;2024-09-28T16.26.29.866;0.950;0.154;-0.038;0.959;6.037;-8.841;-0.366
1,72753E+12;2024-09-28T16.26.29.876;0.960;0.085;-0.041;0.952;3.598;-1.707;-0.793
1,72753E+12;2024-09-28T16.26.29.886;0.970;0.040;-0.047;0.952;2.927;-7.439;-1.280
1,72753E+12;2024-09-28T16.26.29.896;0.980;0.060;-0.049;0.963;4.146;-20.183;-1.280
1,72753E+12;2024-09-28T16.26.29.906;0.990;0.138;-0.048;0.979;5.671;-27.195;-3.110
1,72753E+12;2024-09-28T16.26.29.916;1.000;0.214;-0.045;0.991;5.976;-20.366;-6.098
1,72753E+12;2024-09-28T16.26.29.926;1.010;0.205;-0.040;0.998;5.488;-5.915;-8.049
1,72753E+12;2024-09-28T16.26.29.936;1.020;0.133;-0.047;0.995;4.634;3.293;-8.415
1,72753E+12;2024-09-28T16.26.29.946;1.030;0.110;-0.044;0.990;4.451;1.402;-6.463
1,72753E+12;2024-09-28T16.26.29.956;1.040;0.158;-0.034;0.991;4.695;-4.695;-4.268
1,72753E+12;2024-09-28T16.26.29.966;1.050;0.207;-0.031;1.000;3.537;-4.207;-3.902
1,72753E+12;2024-09-28T16.26.29.976;1.060;0.195;-0.037;1.012;0.915;2.012;-4.329
1,72753E+12;2024-09-28T16.26.29.986;1.070;0.165;-0.043;1.023;-0.854;5.183;-3.354
1,72753E+12;2024-09-28T16.26.29.996;1.080;0.146;-0.046;1.019;-0.671;0.549;-1.951
1,72753E+12;2024-09-28T16.26.30.006;1.090;0.133;-0.046;1.005;0.305;-9.207;-1.463
1,72753E+12;2024-09-28T16.26.30.016;1.100;0.136;-0.044;0.989;1.524;-20.610;-1.341
1,72753E+12;2024-09-28T16.26.30.026;1.110;0.175;-0.043;0.972;2.805;-27.805;-1.768
1,72753E+12;2024-09-28T16.26.30.036;1.120;0.224;-0.040;0.966;2.317;-25.427;-2.073
1,72753E+12;2024-09-28T16.26.30.046;1.130;0.210;-0.042;0.964;0.732;-18.110;-1.829
1,72753E+12;2024-09-28T16.26.30.056;1.140;0.162;-0.051;0.960;-0.183;-15.671;-1.341
1,72753E+12;2024-09-28T16.26.30.066;1.150;0.130;-0.053;0.952;0.549;-22.622;-0.549
1,72753E+12;2024-09-28T16.26.30.076;1.160;0.082;-0.057;0.936;1.646;-40.183;-0.305
1,72753E+12;2024-09-28T16.26.30.086;1.170;-0.051;-0.084;0.920;2.378;-82.683;0.793
1,72753E+12;2024-09-28T16.26.30.096;1.180;-0.178;-0.087;0.903;7.927;-165.244;2.683
1,72753E+12;2024-09-28T16.26.30.106;1.190;-0.166;-0.071;0.869;18.780;-272.317;-0.061
1,72753E+12;2024-09-28T16.26.30.116;1.200;-0.078;-0.071;0.822;29.573;-384.573;-5.122
1,72753E+12;2024-09-28T16.26.30.126;1.210;0.069;-0.030;0.754;40.671;-483.110;-12.744
1,72753E+12;2024-09-28T16.26.30.136;1.220;0.309;-0.001;0.675;48.963;-545.427;-25.000
1,72753E+12;2024-09-28T16.26.30.146;1.230;0.559;0.010;0.602;50.122;-565.854;-33.841
1,72753E+12;2024-09-28T16.26.30.156;1.240;0.628;0.010;0.592;44.451;-568.659;-41.037
1,72753E+12;2024-09-28T16.26.30.166;1.250;0.559;-0.016;0.568;41.646;-577.134;-50.610
1,72753E+12;2024-09-28T16.26.30.176;1.260;0.452;0.014;0.468;45.671;-610.427;-53.354
1,72753E+12;2024-09-28T16.26.30.186;1.270;0.448;0.044;0.317;48.902;-670.854;-52.500
1,72753E+12;2024-09-28T16.26.30.196;1.280;0.536;0.087;0.127;49.939;-753.110;-54.329
1,72753E+12;2024-09-28T16.26.30.206;1.290;0.712;0.123;-0.063;50.244;-827.134;-64.695
1,72753E+12;2024-09-28T16.26.30.216;1.300;0.870;0.134;-0.219;49.451;-870.549;-76.159
1,72753E+12;2024-09-28T16.26.30.226;1.310;0.867;0.130;-0.403;49.451;-886.159;-77.378
1,72753E+12;2024-09-28T16.26.30.236;1.320;0.824;0.230;-0.645;45.183;-891.341;-69.634
1,72753E+12;2024-09-28T16.26.30.246;1.330;0.979;0.276;-0.846;32.439;-876.098;-66.951
1,72753E+12;2024-09-28T16.26.30.256;1.340;1.218;0.236;-0.917;19.390;-818.049;-67.134
1,72753E+12;2024-09-28T16.26.30.266;1.350;1.381;0.191;-0.896;9.695;-703.598;-58.780
1,72753E+12;2024-09-28T16.26.30.276;1.360;1.459;0.191;-0.844;1.524;-542.317;-42.622
1,72753E+12;2024-09-28T16.26.30.286;1.370;1.424;0.186;-0.832;-6.098;-364.024;-25.122
1,72753E+12;2024-09-28T16.26.30.296;1.380;1.185;0.180;-0.872;-13.720;-203.598;-7.378
1,72753E+12;2024-09-28T16.26.30.306;1.390;0.855;0.177;-0.919;-21.463;-94.756;5.000
1,72753E+12;2024-09-28T16.26.30.316;1.400;0.647;0.181;-0.940;-28.537;-42.256;11.159
1,72753E+12;2024-09-28T16.26.30.326;1.410;0.582;0.162;-0.929;-33.110;-29.756;10.976
1,72753E+12;2024-09-28T16.26.30.336;1.420;0.554;0.146;-0.908;-33.293;-40.183;5.610
1,72753E+12;2024-09-28T16.26.30.346;1.430;0.541;0.138;-0.897;-28.963;-60.122;-0.366
1,72753E+12;2024-09-28T16.26.30.356;1.440;0.590;0.136;-0.895;-20.915;-77.683;-7.012
1,72753E+12;2024-09-28T16.26.30.366;1.450;0.675;0.141;-0.905;-10.488;-82.988;-12.561
1,72753E+12;2024-09-28T16.26.30.376;1.460;0.739;0.153;-0.926;0.305;-70.732;-15.061
1,72753E+12;2024-09-28T16.26.30.386;1.470;0.755;0.170;-0.939;7.927;-43.902;-14.878
1,72753E+12;2024-09-28T16.26.30.396;1.480;0.719;0.170;-0.938;12.744;-13.171;-11.951
1,72753E+12;2024-09-28T16.26.30.406;1.490;0.667;0.175;-0.934;15.732;11.280;-7.866
1,72753E+12;2024-09-28T16.26.30.416;1.500;0.626;0.171;-0.908;16.829;26.037;-4.573
1,72753E+12;2024-09-28T16.26.30.426;1.510;0.541;0.172;-0.871;17.073;22.988;-0.732
1,72753E+12;2024-09-28T16.26.30.436;1.520;0.538;0.174;-0.835;15.488;5.488;-0.122
1,72753E+12;2024-09-28T16.26.30.446;1.530;0.626;0.158;-0.790;13.232;-11.159;-3.780
1,72753E+12;2024-09-28T16.26.30.456;1.540;0.670;0.143;-0.757;12.256;-13.963;-6.707
1,72753E+12;2024-09-28T16.26.30.466;1.550;0.689;0.146;-0.744;12.012;-2.927;-7.439
1,72753E+12;2024-09-28T16.26.30.476;1.560;0.728;0.161;-0.743;10.549;15.732;-6.159
1,72753E+12;2024-09-28T16.26.30.486;1.570;0.786;0.167;-0.748;7.500;41.524;-4.146
1,72753E+12;2024-09-28T16.26.30.496;1.580;0.824;0.172;-0.753;3.354;75.061;-1.280
1,72753E+12;2024-09-28T16.26.30.506;1.590;0.872;0.179;-0.765;-2.073;117.378;3.110
1,72753E+12;2024-09-28T16.26.30.516;1.600;0.931;0.177;-0.763;-8.049;166.585;7.866
1,72753E+12;2024-09-28T16.26.30.526;1.610;0.954;0.169;-0.756;-13.963;219.146;13.232
1,72753E+12;2024-09-28T16.26.30.536;1.620;0.963;0.177;-0.762;-19.207;270.366;18.963
1,72753E+12;2024-09-28T16.26.30.546;1.630;0.994;0.196;-0.758;-24.634;319.390;24.085
1,72753E+12;2024-09-28T16.26.30.556;1.640;1.058;0.202;-0.730;-30.610;368.415;28.963
1,72753E+12;2024-09-28T16.26.30.566;1.650;1.085;0.202;-0.678;-36.646;414.695;34.512
1,72753E+12;2024-09-28T16.26.30.576;1.660;1.072;0.198;-0.634;-41.890;454.878;40.549
1,72753E+12;2024-09-28T16.26.30.586;1.670;1.105;0.214;-0.601;-47.073;492.134;46.159
1,72753E+12;2024-09-28T16.26.30.596;1.680;1.206;0.219;-0.526;-53.963;536.037;50.793
1,72753E+12;2024-09-28T16.26.30.606;1.690;1.262;0.209;-0.451;-62.134;587.744;56.890
1,72753E+12;2024-09-28T16.26.30.616;1.700;1.230;0.201;-0.397;-68.902;643.415;62.744
1,72753E+12;2024-09-28T16.26.30.626;1.710;1.130;0.188;-0.320;-73.720;691.646;68.841
1,72753E+12;2024-09-28T16.26.30.636;1.720;1.005;0.175;-0.241;-77.622;720.915;75.915
1,72753E+12;2024-09-28T16.26.30.646;1.730;0.897;0.160;-0.133;-80.061;727.317;78.963
1,72753E+12;2024-09-28T16.26.30.656;1.740;0.802;0.140;-0.005;-82.378;713.232;79.573
1,72753E+12;2024-09-28T16.26.30.666;1.750;0.723;0.098;0.128;-83.110;684.878;78.902
1,72753E+12;2024-09-28T16.26.30.676;1.760;0.632;0.057;0.275;-79.207;648.293;77.439
1,72753E+12;2024-09-28T16.26.30.686;1.770;0.564;0.020;0.408;-71.890;609.146;78.049
1,72753E+12;2024-09-28T16.26.30.696;1.780;0.531;-0.013;0.528;-61.280;568.902;79.695
1,72753E+12;2024-09-28T16.26.30.706;1.790;0.489;-0.046;0.633;-49.817;527.012;77.988
1,72753E+12;2024-09-28T16.26.30.716;1.800;0.413;-0.060;0.696;-36.280;480.610;74.634
1,72753E+12;2024-09-28T16.26.30.726;1.810;0.313;-0.052;0.757;-26.280;426.890;68.415
1,72753E+12;2024-09-28T16.26.30.736;1.820;0.245;-0.057;0.800;-21.829;370.183;60.183
1,72753E+12;2024-09-28T16.26.30.746;1.830;0.160;-0.067;0.845;-22.439;310.915;52.622
1,72753E+12;2024-09-28T16.26.30.756;1.840;0.101;-0.082;0.886;-22.622;248.963;47.012
1,72753E+12;2024-09-28T16.26.30.766;1.850;0.083;-0.094;0.927;-20.976;190.976;42.622
1,72753E+12;2024-09-28T16.26.30.776;1.860;0.099;-0.101;0.951;-19.146;146.585;37.805
1,72753E+12;2024-09-28T16.26.30.786;1.870;0.149;-0.105;0.969;-17.317;120.305;32.683
1,72753E+12;2024-09-28T16.26.30.796;1.880;0.156;-0.102;0.976;-16.037;105.183;27.988
1,72753E+12;2024-09-28T16.26.30.806;1.890;0.081;-0.104;0.971;-14.268;90.915;21.585
1,72753E+12;2024-09-28T16.26.30.816;1.900;-0.005;-0.110;0.961;-11.829;71.159;16.585
1,72753E+12;2024-09-28T16.26.30.826;1.910;-0.002;-0.107;0.960;-7.744;49.512;14.146
1,72753E+12;2024-09-28T16.26.30.836;1.920;0.050;-0.098;0.952;-3.476;34.085;12.073
1,72753E+12;2024-09-28T16.26.30.846;1.930;0.048;-0.096;0.935;-0.610;24.512;8.963
1,72753E+12;2024-09-28T16.26.30.856;1.940;0.009;-0.092;0.920;2.134;13.110;4.756
1,72753E+12;2024-09-28T16.26.30.866;1.950;0.005;-0.081;0.911;5.793;-0.915;1.402
1,72753E+12;2024-09-28T16.26.30.876;1.960;0.038;-0.076;0.910;8.902;-12.927;0.244
1,72753E+12;2024-09-28T16.26.30.886;1.970;0.069;-0.075;0.928;10.488;-19.207;-1.280
1,72753E+12;2024-09-28T16.26.30.896;1.980;0.113;-0.075;0.951;11.585;-17.134;-3.049
1,72753E+12;2024-09-28T16.26.30.906;1.990;0.144;-0.070;0.957;12.439;-7.012;-3.902
1,72753E+12;2024-09-28T16.26.30.916;2.000;0.140;-0.071;0.963;11.098;6.890;-4.390
1,72753E+12;2024-09-28T16.26.30.926;2.010;0.119;-0.073;0.980;8.780;17.012;-3.780
1,72753E+12;2024-09-28T16.26.30.936;2.020;0.092;-0.072;1.003;7.317;17.683;-2.927
1,72753E+12;2024-09-28T16.26.30.946;2.030;0.069;-0.077;1.017;7.561;7.744;-3.354
1,72753E+12;2024-09-28T16.26.30.956;2.040;0.083;-0.077;1.029;9.207;-7.622;-5.061
1,72753E+12;2024-09-28T16.26.30.966;2.050;0.122;-0.067;1.031;11.159;-20.488;-7.012
1,72753E+12;2024-09-28T16.26.30.976;2.060;0.178;-0.057;1.031;11.707;-23.598;-8.415
1,72753E+12;2024-09-28T16.26.30.986;2.070;0.217;-0.048;1.029;10.305;-16.585;-8.720
1,72753E+12;2024-09-28T16.26.30.996;2.080;0.205;-0.046;1.013;7.439;-4.817;-8.354
1,72753E+12;2024-09-28T16.26.31.006;2.090;0.176;-0.046;1.001;3.780;4.268;-6.524
1,72753E+12;2024-09-28T16.26.31.016;2.100;0.154;-0.054;1.002;1.159;4.390;-3.415
1,72753E+12;2024-09-28T16.26.31.026;2.110;0.145;-0.062;1.001;0.549;-4.207;-2.378
1,72753E+12;2024-09-28T16.26.31.036;2.120;0.149;-0.069;0.993;1.159;-16.463;-2.927
1,72753E+12;2024-09-28T16.26.31.046;2.130;0.155;-0.073;0.985;2.012;-28.537;-3.049
1,72753E+12;2024-09-28T16.26.31.056;2.140;0.157;-0.076;0.970;3.537;-39.451;-3.476
1,72753E+12;2024-09-28T16.26.31.066;2.150;0.138;-0.077;0.956;5.061;-51.037;-4.146
1,72753E+12;2024-09-28T16.26.31.076;2.160;0.097;-0.082;0.943;7.256;-68.354;-4.207
1,72753E+12;2024-09-28T16.26.31.086;2.170;0.064;-0.083;0.923;10.854;-96.098;-4.390
1,72753E+12;2024-09-28T16.26.31.096;2.180;0.052;-0.084;0.913;15.549;-134.817;-5.427
1,72753E+12;2024-09-28T16.26.31.106;2.190;0.050;-0.084;0.896;21.768;-183.598;-7.561
1,72753E+12;2024-09-28T16.26.31.116;2.200;0.037;-0.084;0.876;28.841;-243.232;-10.976
1,72753E+12;2024-09-28T16.26.31.126;2.210;0.077;-0.069;0.847;37.317;-309.634;-15.305
1,72753E+12;2024-09-28T16.26.31.136;2.220;0.187;-0.056;0.809;45.671;-368.415;-21.341
1,72753E+12;2024-09-28T16.26.31.146;2.230;0.264;-0.055;0.758;51.098;-420.305;-24.146
1,72753E+12;2024-09-28T16.26.31.156;2.240;0.325;-0.043;0.676;56.463;-472.439;-25.549
1,72753E+12;2024-09-28T16.26.31.166;2.250;0.409;-0.021;0.606;61.159;-523.598;-30.549
1,72753E+12;2024-09-28T16.26.31.176;2.260;0.484;-0.004;0.530;64.634;-572.805;-34.390
1,72753E+12;2024-09-28T16.26.31.186;2.270;0.573;0.016;0.425;67.805;-618.781;-35.671
1,72753E+12;2024-09-28T16.26.31.196;2.280;0.675;0.030;0.301;70.549;-659.146;-37.744
1,72753E+12;2024-09-28T16.26.31.206;2.290;0.710;0.058;0.144;71.890;-698.720;-39.329
1,72753E+12;2024-09-28T16.26.31.216;2.300;0.729;0.081;-0.036;72.744;-738.659;-41.159
1,72753E+12;2024-09-28T16.26.31.226;2.310;0.779;0.115;-0.218;71.402;-777.317;-41.220
1,72753E+12;2024-09-28T16.26.31.236;2.320;0.840;0.146;-0.401;67.500;-808.598;-40.366
1,72753E+12;2024-09-28T16.26.31.246;2.330;0.894;0.173;-0.582;61.951;-827.805;-39.207
1,72753E+12;2024-09-28T16.26.31.256;2.340;0.922;0.188;-0.742;54.512;-833.659;-37.256
1,72753E+12;2024-09-28T16.26.31.266;2.350;0.921;0.195;-0.885;45.488;-828.781;-33.354
1,72753E+12;2024-09-28T16.26.31.276;2.360;0.962;0.189;-0.992;34.512;-806.463;-29.573
1,72753E+12;2024-09-28T16.26.31.286;2.370;1.021;0.160;-1.027;24.390;-760.183;-26.402
1,72753E+12;2024-09-28T16.26.31.296;2.380;1.124;0.157;-1.012;13.963;-680.061;-21.585
1,72753E+12;2024-09-28T16.26.31.306;2.390;1.245;0.136;-0.982;4.939;-560.915;-17.073
1,72753E+12;2024-09-28T16.26.31.316;2.400;1.261;0.105;-0.935;-2.073;-415.915;-9.878
1,72753E+12;2024-09-28T16.26.31.326;2.410;1.173;0.104;-0.927;-8.598;-263.659;-1.341
1,72753E+12;2024-09-28T16.26.31.336;2.420;1.024;0.106;-0.953;-15.610;-126.646;5.793
1,72753E+12;2024-09-28T16.26.31.346;2.430;0.830;0.108;-0.971;-21.280;-24.817;12.561
1,72753E+12;2024-09-28T16.26.31.356;2.440;0.671;0.108;-0.973;-25.549;37.378;16.768
1,72753E+12;2024-09-28T16.26.31.366;2.450;0.575;0.105;-0.952;-28.902;64.878;17.866
1,72753E+12;2024-09-28T16.26.31.376;2.460;0.509;0.108;-0.929;-29.024;62.317;16.707
1,72753E+12;2024-09-28T16.26.31.386;2.470;0.500;0.118;-0.919;-26.890;39.024;13.537
1,72753E+12;2024-09-28T16.26.31.396;2.480;0.574;0.125;-0.906;-23.354;10.427;7.744
1,72753E+12;2024-09-28T16.26.31.406;2.490;0.653;0.112;-0.891;-17.683;-9.451;1.524
1,72753E+12;2024-09-28T16.26.31.416;2.500;0.654;0.106;-0.887;-10.366;-15.549;-2.195
1,72753E+12;2024-09-28T16.26.31.426;2.510;0.644;0.104;-0.889;-2.744;-9.573;-3.720
1,72753E+12;2024-09-28T16.26.31.436;2.520;0.672;0.110;-0.894;3.171;6.402;-2.927
1,72753E+12;2024-09-28T16.26.31.446;2.530;0.670;0.117;-0.891;7.073;26.768;0.244
1,72753E+12;2024-09-28T16.26.31.456;2.540;0.623;0.118;-0.885;9.146;44.329;4.146
1,72753E+12;2024-09-28T16.26.31.466;2.550;0.607;0.120;-0.876;9.451;56.220;6.768
1,72753E+12;2024-09-28T16.26.31.476;2.560;0.617;0.123;-0.853;8.232;63.476;7.927
1,72753E+12;2024-09-28T16.26.31.486;2.570;0.611;0.117;-0.830;6.280;67.805;8.293
1,72753E+12;2024-09-28T16.26.31.496;2.580;0.593;0.115;-0.811;4.634;69.512;8.049
1,72753E+12;2024-09-28T16.26.31.506;2.590;0.585;0.119;-0.795;3.293;68.049;7.500
1,72753E+12;2024-09-28T16.26.31.516;2.600;0.613;0.121;-0.781;1.890;66.159;6.707
1,72753E+12;2024-09-28T16.26.31.526;2.610;0.659;0.123;-0.776;0.000;68.049;5.610
1,72753E+12;2024-09-28T16.26.31.536;2.620;0.713;0.131;-0.779;-2.439;77.622;4.695
1,72753E+12;2024-09-28T16.26.31.546;2.630;0.784;0.138;-0.779;-5.427;97.195;4.085
1,72753E+12;2024-09-28T16.26.31.556;2.640;0.860;0.133;-0.777;-9.207;128.110;4.207
1,72753E+12;2024-09-28T16.26.31.566;2.650;0.904;0.137;-0.771;-13.110;167.439;5.366
1,72753E+12;2024-09-28T16.26.31.576;2.660;0.938;0.140;-0.768;-16.890;213.110;6.585
1,72753E+12;2024-09-28T16.26.31.586;2.670;0.993;0.137;-0.746;-20.000;262.561;8.780
1,72753E+12;2024-09-28T16.26.31.596;2.680;1.049;0.136;-0.733;-22.622;314.573;11.768
1,72753E+12;2024-09-28T16.26.31.606;2.690;1.128;0.141;-0.725;-24.634;373.537;14.512
1,72753E+12;2024-09-28T16.26.31.616;2.700;1.224;0.142;-0.692;-27.378;439.939;18.171
1,72753E+12;2024-09-28T16.26.31.626;2.710;1.266;0.137;-0.656;-30.122;509.695;23.902
1,72753E+12;2024-09-28T16.26.31.636;2.720;1.247;0.148;-0.605;-32.378;577.744;30.793
1,72753E+12;2024-09-28T16.26.31.646;2.730;1.239;0.165;-0.555;-37.195;640.061;38.841
1,72753E+12;2024-09-28T16.26.31.656;2.740;1.252;0.167;-0.503;-44.268;697.012;48.293
1,72753E+12;2024-09-28T16.26.31.666;2.750;1.181;0.165;-0.431;-51.341;743.598;57.012
1,72753E+12;2024-09-28T16.26.31.676;2.760;1.052;0.171;-0.355;-59.146;774.268;63.171
1,72753E+12;2024-09-28T16.26.31.686;2.770;0.944;0.161;-0.258;-66.829;786.951;65.183
1,72753E+12;2024-09-28T16.26.31.696;2.780;0.807;0.127;-0.138;-74.695;780.061;66.585
1,72753E+12;2024-09-28T16.26.31.706;2.790;0.676;0.094;0.013;-80.061;755.671;66.829
1,72753E+12;2024-09-28T16.26.31.716;2.800;0.559;0.041;0.183;-79.329;715.305;65.366
1,72753E+12;2024-09-28T16.26.31.726;2.810;0.435;-0.016;0.350;-72.195;659.268;65.122
1,72753E+12;2024-09-28T16.26.31.736;2.820;0.369;-0.048;0.507;-59.634;593.110;64.817
1,72753E+12;2024-09-28T16.26.31.746;2.830;0.345;-0.081;0.629;-42.805;523.841;63.963
1,72753E+12;2024-09-28T16.26.31.756;2.840;0.270;-0.091;0.717;-25.793;453.659;61.524
1,72753E+12;2024-09-28T16.26.31.766;2.850;0.165;-0.088;0.796;-13.354;375.732;56.707
1,72753E+12;2024-09-28T16.26.31.776;2.860;0.118;-0.084;0.859;-2.561;288.293;49.207
1,72753E+12;2024-09-28T16.26.31.786;2.870;0.157;-0.066;0.902;8.841;205.000;39.024
1,72753E+12;2024-09-28T16.26.31.796;2.880;0.240;-0.052;0.929;17.805;150.488;27.500
1,72753E+12;2024-09-28T16.26.31.806;2.890;0.273;-0.051;0.921;21.220;132.866;18.720
1,72753E+12;2024-09-28T16.26.31.816;2.900;0.185;-0.048;0.910;18.171;131.341;13.598
1,72753E+12;2024-09-28T16.26.31.826;2.910;0.087;-0.039;0.910;12.683;125.732;12.927
1,72753E+12;2024-09-28T16.26.31.836;2.920;0.038;-0.035;0.929;7.683;108.415;14.939
1,72753E+12;2024-09-28T16.26.31.846;2.930;0.022;-0.038;0.964;3.780;82.073;16.768
1,72753E+12;2024-09-28T16.26.31.856;2.940;0.041;-0.039;1.010;2.012;56.280;16.707
1,72753E+12;2024-09-28T16.26.31.866;2.950;0.092;-0.043;1.037;2.561;39.329;15.488
1,72753E+12;2024-09-28T16.26.31.876;2.960;0.120;-0.045;1.044;3.720;31.829;12.317
1,72753E+12;2024-09-28T16.26.31.886;2.970;0.110;-0.038;1.036;4.573;29.390;7.988
1,72753E+12;2024-09-28T16.26.31.896;2.980;0.104;-0.033;1.023;4.634;28.415;5.366
1,72753E+12;2024-09-28T16.26.31.906;2.990;0.093;-0.033;1.011;3.720;26.402;4.207
1,72753E+12;2024-09-28T16.26.31.916;3.000;0.071;-0.030;0.986;2.378;22.988;2.317
1,72753E+12;2024-09-28T16.26.31.926;3.010;0.073;-0.027;0.969;0.305;19.207;1.220
1,72753E+12;2024-09-28T16.26.31.936;3.020;0.079;-0.034;0.972;-2.256;14.573;0.671
1,72753E+12;2024-09-28T16.26.31.946;3.030;0.078;-0.042;0.975;-3.659;7.500;-0.854
1,72753E+12;2024-09-28T16.26.31.956;3.040;0.089;-0.047;0.978;-2.744;-1.585;-3.110
1,72753E+12;2024-09-28T16.26.31.966;3.050;0.108;-0.049;0.976;-0.671;-8.902;-5.000
1,72753E+12;2024-09-28T16.26.31.976;3.060;0.136;-0.047;0.974;1.829;-12.561;-5.793
1,72753E+12;2024-09-28T16.26.31.986;3.070;0.171;-0.036;0.965;4.329;-11.402;-6.402
1,72753E+12;2024-09-28T16.26.31.996;3.080;0.194;-0.033;0.954;5.427;-4.329;-7.012
1,72753E+12;2024-09-28T16.26.32.006;3.090;0.170;-0.035;0.948;4.878;2.134;-7.073
1,72753E+12;2024-09-28T16.26.32.016;3.100;0.141;-0.032;0.943;4.695;1.768;-6.280
1,72753E+12;2024-09-28T16.26.32.026;3.110;0.148;-0.031;0.945;4.756;-5.061;-5.244
1,72753E+12;2024-09-28T16.26.32.036;3.120;0.178;-0.034;0.963;4.756;-13.720;-5.061
1,72753E+12;2024-09-28T16.26.32.046;3.130;0.206;-0.035;0.980;5.183;-18.415;-6.098
1,72753E+12;2024-09-28T16.26.32.056;3.140;0.214;-0.037;0.990;5.305;-17.622;-6.646
1,72753E+12;2024-09-28T16.26.32.066;3.150;0.229;-0.038;0.995;5.427;-12.622;-6.037
1,72753E+12;2024-09-28T16.26.32.076;3.160;0.232;-0.030;1.001;4.939;-6.402;-5.061
1,72753E+12;2024-09-28T16.26.32.086;3.170;0.204;-0.031;0.999;4.390;-3.049;-4.146
1,72753E+12;2024-09-28T16.26.32.096;3.180;0.160;-0.034;0.995;4.268;-6.524;-3.110
1,72753E+12;2024-09-28T16.26.32.106;3.190;0.146;-0.033;0.989;4.390;-16.768;-2.256
1,72753E+12;2024-09-28T16.26.32.116;3.200;0.147;-0.025;0.976;4.817;-31.463;-1.951
1,72753E+12;2024-09-28T16.26.32.126;3.210;0.133;-0.022;0.957;5.000;-49.329;-2.622
1,72753E+12;2024-09-28T16.26.32.136;3.220;0.098;-0.029;0.948;4.634;-71.585;-3.476
1,72753E+12;2024-09-28T16.26.32.146;3.230;0.070;-0.034;0.940;5.183;-102.378;-2.561
1,72753E+12;2024-09-28T16.26.32.156;3.240;0.073;-0.040;0.929;7.378;-142.317;-1.890
1,72753E+12;2024-09-28T16.26.32.166;3.250;0.067;-0.043;0.911;10.061;-190.854;-2.378
1,72753E+12;2024-09-28T16.26.32.176;3.260;0.039;-0.039;0.863;14.329;-250.000;-3.659
1,72753E+12;2024-09-28T16.26.32.186;3.270;0.014;-0.049;0.798;17.866;-320.000;-5.183
1,72753E+12;2024-09-28T16.26.32.196;3.280;0.054;-0.038;0.734;20.366;-402.195;-2.927
1,72753E+12;2024-09-28T16.26.32.206;3.290;0.197;-0.049;0.643;22.256;-487.744;-3.049
1,72753E+12;2024-09-28T16.26.32.216;3.300;0.298;-0.016;0.577;22.988;-580.305;-6.890
1,72753E+12;2024-09-28T16.26.32.226;3.310;0.438;0.015;0.502;24.451;-669.634;-20.061
1,72753E+12;2024-09-28T16.26.32.236;3.320;0.576;0.013;0.394;28.598;-747.256;-35.915
1,72753E+12;2024-09-28T16.26.32.246;3.330;0.669;0.032;0.228;34.268;-810.061;-47.317
1,72753E+12;2024-09-28T16.26.32.256;3.340;0.775;0.086;0.012;37.805;-861.341;-54.573
1,72753E+12;2024-09-28T16.26.32.266;3.350;0.886;0.122;-0.191;36.524;-898.476;-61.463
1,72753E+12;2024-09-28T16.26.32.276;3.360;0.963;0.145;-0.369;31.707;-916.707;-64.634
1,72753E+12;2024-09-28T16.26.32.286;3.370;1.023;0.158;-0.530;24.390;-914.512;-62.866
1,72753E+12;2024-09-28T16.26.32.296;3.380;1.056;0.187;-0.664;14.939;-894.268;-57.744
1,72753E+12;2024-09-28T16.26.32.306;3.390;1.126;0.180;-0.748;4.939;-848.902;-52.500
1,72753E+12;2024-09-28T16.26.32.316;3.400;1.168;0.159;-0.778;-4.024;-775.122;-45.793
1,72753E+12;2024-09-28T16.26.32.326;3.410;1.179;0.145;-0.764;-14.756;-672.927;-36.951
1,72753E+12;2024-09-28T16.26.32.336;3.420;1.225;0.133;-0.727;-23.415;-546.585;-28.049
1,72753E+12;2024-09-28T16.26.32.346;3.430;1.255;0.108;-0.710;-29.085;-403.354;-18.415
1,72753E+12;2024-09-28T16.26.32.356;3.440;1.151;0.100;-0.720;-33.171;-260.488;-7.927
1,72753E+12;2024-09-28T16.26.32.366;3.450;0.980;0.112;-0.769;-36.037;-139.451;0.427
1,72753E+12;2024-09-28T16.26.32.376;3.460;0.832;0.114;-0.819;-37.256;-54.085;5.061
1,72753E+12;2024-09-28T16.26.32.386;3.470;0.713;0.119;-0.857;-36.707;-4.878;8.049
1,72753E+12;2024-09-28T16.26.32.396;3.480;0.648;0.125;-0.895;-34.939;15.366;7.744
1,72753E+12;2024-09-28T16.26.32.406;3.490;0.625;0.135;-0.928;-32.073;15.610;4.817
1,72753E+12;2024-09-28T16.26.32.416;3.500;0.640;0.149;-0.956;-28.841;6.098;0.366
1,72753E+12;2024-09-28T16.26.32.426;3.510;0.684;0.157;-0.970;-25.610;-3.354;-3.110
1,72753E+12;2024-09-28T16.26.32.436;3.520;0.716;0.160;-0.973;-22.134;-6.829;-4.512
1,72753E+12;2024-09-28T16.26.32.446;3.530;0.728;0.157;-0.958;-18.780;-2.378;-3.841
1,72753E+12;2024-09-28T16.26.32.456;3.540;0.723;0.148;-0.931;-14.634;6.524;-0.854
1,72753E+12;2024-09-28T16.26.32.466;3.550;0.713;0.147;-0.901;-9.512;16.585;3.049
1,72753E+12;2024-09-28T16.26.32.476;3.560;0.715;0.146;-0.869;-4.390;26.646;6.768
1,72753E+12;2024-09-28T16.26.32.486;3.570;0.721;0.143;-0.836;0.061;37.744;9.573
1,72753E+12;2024-09-28T16.26.32.496;3.580;0.683;0.143;-0.808;4.329;45.366;11.829
1,72753E+12;2024-09-28T16.26.32.506;3.590;0.638;0.145;-0.785;7.927;44.939;13.049
1,72753E+12;2024-09-28T16.26.32.516;3.600;0.649;0.146;-0.756;10.122;39.207;12.073
1,72753E+12;2024-09-28T16.26.32.526;3.610;0.656;0.143;-0.738;11.402;32.317;10.122
1,72753E+12;2024-09-28T16.26.32.536;3.620;0.656;0.145;-0.730;11.341;27.378;8.049
1,72753E+12;2024-09-28T16.26.32.546;3.630;0.690;0.150;-0.721;9.024;27.561;5.915
1,72753E+12;2024-09-28T16.26.32.556;3.640;0.759;0.154;-0.718;4.390;38.354;4.817
1,72753E+12;2024-09-28T16.26.32.566;3.650;0.850;0.156;-0.726;-1.890;65.549;5.244
1,72753E+12;2024-09-28T16.26.32.576;3.660;0.943;0.160;-0.714;-8.902;109.939;7.622
1,72753E+12;2024-09-28T16.26.32.586;3.670;1.026;0.148;-0.689;-15.305;167.134;10.793
1,72753E+12;2024-09-28T16.26.32.596;3.680;1.068;0.138;-0.666;-19.573;231.951;13.841
1,72753E+12;2024-09-28T16.26.32.606;3.690;1.068;0.131;-0.652;-21.524;298.354;18.963
1,72753E+12;2024-09-28T16.26.32.616;3.700;1.090;0.134;-0.623;-22.256;359.939;25.976
1,72753E+12;2024-09-28T16.26.32.626;3.710;1.116;0.135;-0.601;-21.768;414.085;32.622
1,72753E+12;2024-09-28T16.26.32.636;3.720;1.104;0.145;-0.577;-21.280;459.146;39.451
1,72753E+12;2024-09-28T16.26.32.646;3.730;1.115;0.163;-0.532;-22.866;496.585;46.402
1,72753E+12;2024-09-28T16.26.32.656;3.740;1.171;0.170;-0.477;-26.402;530.183;52.988
1,72753E+12;2024-09-28T16.26.32.666;3.750;1.198;0.157;-0.417;-30.854;563.841;57.988
1,72753E+12;2024-09-28T16.26.32.676;3.760;1.135;0.152;-0.341;-35.549;594.756;62.317
1,72753E+12;2024-09-28T16.26.32.686;3.770;1.035;0.155;-0.271;-40.976;614.756;69.024
1,72753E+12;2024-09-28T16.26.32.696;3.780;0.962;0.145;-0.164;-46.098;620.427;76.402
1,72753E+12;2024-09-28T16.26.32.706;3.790;0.932;0.135;-0.056;-50.366;613.110;82.744
1,72753E+12;2024-09-28T16.26.32.716;3.800;0.924;0.102;0.069;-53.232;600.366;85.366
1,72753E+12;2024-09-28T16.26.32.726;3.810;0.871;0.070;0.182;-52.378;584.756;85.244
1,72753E+12;2024-09-28T16.26.32.736;3.820;0.808;0.042;0.273;-49.024;566.890;84.146
1,72753E+12;2024-09-28T16.26.32.746;3.830;0.754;0.021;0.348;-43.354;550.671;82.622
1,72753E+12;2024-09-28T16.26.32.756;3.840;0.698;-0.011;0.426;-37.805;537.622;82.500
1,72753E+12;2024-09-28T16.26.32.766;3.850;0.606;-0.023;0.510;-31.707;520.000;82.744
1,72753E+12;2024-09-28T16.26.32.776;3.860;0.528;-0.067;0.592;-23.476;499.024;80.671
1,72753E+12;2024-09-28T16.26.32.786;3.870;0.418;-0.083;0.662;-14.329;465.305;78.720
1,72753E+12;2024-09-28T16.26.32.796;3.880;0.332;-0.080;0.733;-4.695;414.878;72.378
1,72753E+12;2024-09-28T16.26.32.806;3.890;0.336;-0.057;0.759;4.451;365.915;62.439
1,72753E+12;2024-09-28T16.26.32.816;3.900;0.323;-0.065;0.804;3.841;332.683;51.220
1,72753E+12;2024-09-28T16.26.32.826;3.910;0.257;-0.087;0.859;-0.549;310.671;41.951
1,72753E+12;2024-09-28T16.26.32.836;3.920;0.151;-0.108;0.899;-2.134;287.622;34.573
1,72753E+12;2024-09-28T16.26.32.846;3.930;0.008;-0.129;0.941;-2.500;249.695;28.902
1,72753E+12;2024-09-28T16.26.32.856;3.940;-0.095;-0.129;0.958;2.073;193.171;24.085
1,72753E+12;2024-09-28T16.26.32.866;3.950;-0.121;-0.117;0.949;7.988;132.073;19.817
1,72753E+12;2024-09-28T16.26.32.876;3.960;-0.062;-0.093;0.949;11.768;84.756;16.341
1,72753E+12;2024-09-28T16.26.32.886;3.970;0.030;-0.081;0.961;12.195;65.427;14.634
1,72753E+12;2024-09-28T16.26.32.896;3.980;0.036;-0.076;0.989;8.841;62.012;15.427
1,72753E+12;2024-09-28T16.26.32.906;3.990;0.001;-0.065;0.999;6.707;57.195;17.439
1,72753E+12;2024-09-28T16.26.32.916;4.000;-0.027;-0.065;1.001;6.037;46.402;18.963
1,72753E+12;2024-09-28T16.26.32.926;4.010;-0.029;-0.062;1.000;4.878;32.378;20.549
1,72753E+12;2024-09-28T16.26.32.936;4.020;0.030;-0.056;1.009;3.598;18.171;20.488
1,72753E+12;2024-09-28T16.26.32.946;4.030;0.073;-0.049;1.014;2.500;6.951;15.427
1,72753E+12;2024-09-28T16.26.32.956;4.040;0.030;-0.057;1.002;1.707;0.793;6.159
1,72753E+12;2024-09-28T16.26.32.966;4.050;0.020;-0.061;0.994;0.915;-3.841;0.915
1,72753E+12;2024-09-28T16.26.32.976;4.060;0.035;-0.059;0.986;1.341;-7.866;-1.646
1,72753E+12;2024-09-28T16.26.32.986;4.070;0.028;-0.067;0.974;1.280;-8.110;-4.634
1,72753E+12;2024-09-28T16.26.32.996;4.080;0.031;-0.065;0.968;0.793;-5.488;-5.610
1,72753E+12;2024-09-28T16.26.33.006;4.090;0.041;-0.067;0.965;0.915;-1.402;-6.220
1,72753E+12;2024-09-28T16.26.33.016;4.100;0.039;-0.073;0.966;1.280;1.890;-6.220
1,72753E+12;2024-09-28T16.26.33.026;4.110;0.031;-0.078;0.970;2.378;1.402;-5.976
1,72753E+12;2024-09-28T16.26.33.036;4.120;0.046;-0.078;0.976;3.780;-2.439;-5.488
1,72753E+12;2024-09-28T16.26.33.046;4.130;0.073;-0.072;0.981;4.878;-6.951;-5.427
1,72753E+12;2024-09-28T16.26.33.056;4.140;0.093;-0.068;0.981;5.305;-8.963;-6.037
1,72753E+12;2024-09-28T16.26.33.066;4.150;0.098;-0.071;0.987;4.451;-8.476;-6.098
1,72753E+12;2024-09-28T16.26.33.076;4.160;0.092;-0.068;0.988;4.573;-9.573;-5.854
1,72753E+12;2024-09-28T16.26.33.086;4.170;0.104;-0.068;0.984;5.183;-11.524;-5.793
1,72753E+12;2024-09-28T16.26.33.096;4.180;0.125;-0.066;0.989;5.000;-11.951;-5.549
1,72753E+12;2024-09-28T16.26.33.106;4.190;0.146;-0.062;0.988;4.146;-8.476;-5.732
1,72753E+12;2024-09-28T16.26.33.116;4.200;0.149;-0.063;0.991;2.744;-1.037;-5.610
1,72753E+12;2024-09-28T16.26.33.126;4.210;0.121;-0.073;0.998;1.402;3.963;-4.268
1,72753E+12;2024-09-28T16.26.33.136;4.220;0.098;-0.074;1.005;1.402;1.098;-2.866
1,72753E+12;2024-09-28T16.26.33.146;4.230;0.093;-0.073;1.006;2.805;-7.195;-2.378
1,72753E+12;2024-09-28T16.26.33.156;4.240;0.108;-0.069;1.009;4.451;-16.280;-2.073
1,72753E+12;2024-09-28T16.26.33.166;4.250;0.137;-0.062;0.999;5.793;-21.646;-2.500
1,72753E+12;2024-09-28T16.26.33.176;4.260;0.145;-0.055;0.988;5.549;-21.341;-2.622
1,72753E+12;2024-09-28T16.26.33.186;4.270;0.118;-0.053;0.985;3.963;-20.305;-1.524
1,72753E+12;2024-09-28T16.26.33.196;4.280;0.087;-0.056;0.976;2.744;-24.207;0.000
1,72753E+12;2024-09-28T16.26.33.206;4.290;0.027;-0.069;0.969;2.012;-40.000;1.280
1,72753E+12;2024-09-28T16.26.33.216;4.300;-0.073;-0.085;0.959;3.841;-77.500;1.707
1,72753E+12;2024-09-28T16.26.33.226;4.310;-0.117;-0.091;0.945;9.573;-136.220;0.671
1,72753E+12;2024-09-28T16.26.33.236;4.320;-0.108;-0.085;0.926;18.415;-208.415;-1.646
1,72753E+12;2024-09-28T16.26.33.246;4.330;-0.125;-0.082;0.901;27.927;-294.451;-6.037
1,72753E+12;2024-09-28T16.26.33.256;4.340;-0.100;-0.058;0.836;40.854;-392.805;-12.378
1,72753E+12;2024-09-28T16.26.33.266;4.350;0.045;-0.032;0.774;52.195;-484.024;-22.195
1,72753E+12;2024-09-28T16.26.33.276;4.360;0.188;-0.024;0.695;58.598;-561.585;-29.939
1,72753E+12;2024-09-28T16.26.33.286;4.370;0.269;-0.020;0.582;63.902;-634.451;-35.000
1,72753E+12;2024-09-28T16.26.33.296;4.380;0.368;0.014;0.457;67.439;-705.732;-41.707
1,72753E+12;2024-09-28T16.26.33.306;4.390;0.523;0.044;0.315;67.744;-772.805;-48.841
1,72753E+12;2024-09-28T16.26.33.316;4.400;0.646;0.095;0.159;66.463;-836.159;-55.549
1,72753E+12;2024-09-28T16.26.33.326;4.410;0.796;0.130;-0.002;62.317;-883.049;-68.232
1,72753E+12;2024-09-28T16.26.33.336;4.420;0.966;0.123;-0.126;58.293;-903.598;-78.049
1,72753E+12;2024-09-28T16.26.33.346;4.430;1.048;0.094;-0.223;57.195;-892.683;-78.659
1,72753E+12;2024-09-28T16.26.33.356;4.440;1.018;0.080;-0.367;58.902;-862.866;-69.146
1,72753E+12;2024-09-28T16.26.33.366;4.450;0.971;0.151;-0.568;59.268;-830.305;-54.329
1,72753E+12;2024-09-28T16.26.33.376;4.460;1.063;0.198;-0.742;54.451;-789.878;-47.439
1,72753E+12;2024-09-28T16.26.33.386;4.470;1.249;0.178;-0.812;45.976;-718.537;-46.585
