epoc (ms);timestamp (+0300);elapsed (s);acc_x;acc_y;acc_z;gyr_x;gyr_y;gyr_z
1,72753E+12;2024-09-28T16.26.52.108;0.000;0.181;-0.097;0.963;1.524;-12.378;-5.793
1,72753E+12;2024-09-28T16.26.52.118;0.010;0.174;-0.099;0.963;1.585;-12.744;-5.671
1,72753E+12;2024-09-28T16.26.52.128;0.020;0.176;-0.104;0.953;2.256;-14.512;-5.305
1,72753E+12;2024-09-28T16.26.52.138;0.030;0.157;-0.107;0.952;3.415;-21.829;-5.000
1,72753E+12;2024-09-28T16.26.52.148;0.040;0.135;-0.111;0.952;5.183;-34.573;-5.427
1,72753E+12;2024-09-28T16.26.52.158;0.050;0.130;-0.120;0.952;7.500;-50.976;-6.585
1,72753E+12;2024-09-28T16.26.52.168;0.060;0.127;-0.125;0.949;10.183;-71.890;-8.110
1,72753E+12;2024-09-28T16.26.52.178;0.070;0.106;-0.128;0.942;13.598;-101.098;-10.183
1,72753E+12;2024-09-28T16.26.52.188;0.080;0.086;-0.131;0.923;17.622;-140.000;-13.171
1,72753E+12;2024-09-28T16.26.52.198;0.090;0.080;-0.130;0.903;21.768;-187.561;-17.500
1,72753E+12;2024-09-28T16.26.52.208;0.100;0.070;-0.128;0.879;25.976;-247.378;-21.585
1,72753E+12;2024-09-28T16.26.52.218;0.110;0.052;-0.126;0.854;31.829;-317.866;-27.256
1,72753E+12;2024-09-28T16.26.52.228;0.120;0.078;-0.110;0.817;37.500;-384.207;-35.854
1,72753E+12;2024-09-28T16.26.52.238;0.130;0.179;-0.091;0.777;40.427;-439.451;-42.683
1,72753E+12;2024-09-28T16.26.52.248;0.140;0.307;-0.090;0.732;43.110;-495.488;-48.049
1,72753E+12;2024-09-28T16.26.52.258;0.150;0.344;-0.082;0.669;45.549;-561.524;-56.829
1,72753E+12;2024-09-28T16.26.52.268;0.160;0.339;-0.060;0.601;47.622;-644.207;-65.732
1,72753E+12;2024-09-28T16.26.52.278;0.170;0.367;-0.026;0.516;50.183;-734.756;-76.646
1,72753E+12;2024-09-28T16.26.52.288;0.180;0.457;0.025;0.398;51.646;-822.805;-88.841
1,72753E+12;2024-09-28T16.26.52.298;0.190;0.557;0.073;0.236;51.524;-897.988;-98.902
1,72753E+12;2024-09-28T16.26.52.308;0.200;0.670;0.123;0.027;47.256;-947.317;-103.902
1,72753E+12;2024-09-28T16.26.52.318;0.210;0.808;0.161;-0.186;38.659;-960.183;-102.317
1,72753E+12;2024-09-28T16.26.52.328;0.220;0.951;0.174;-0.389;30.366;-933.841;-94.085
1,72753E+12;2024-09-28T16.26.52.338;0.230;1.073;0.167;-0.558;21.890;-879.634;-79.939
1,72753E+12;2024-09-28T16.26.52.348;0.240;1.120;0.174;-0.683;12.744;-802.256;-66.402
1,72753E+12;2024-09-28T16.26.52.358;0.250;1.168;0.177;-0.781;3.049;-699.573;-53.902
1,72753E+12;2024-09-28T16.26.52.368;0.260;1.256;0.174;-0.820;-6.341;-574.207;-41.402
1,72753E+12;2024-09-28T16.26.52.378;0.270;1.277;0.151;-0.798;-13.415;-436.646;-25.671
1,72753E+12;2024-09-28T16.26.52.388;0.280;1.205;0.148;-0.801;-19.146;-302.866;-11.159
1,72753E+12;2024-09-28T16.26.52.398;0.290;1.106;0.154;-0.851;-25.366;-186.768;-1.159
1,72753E+12;2024-09-28T16.26.52.408;0.300;0.967;0.159;-0.897;-31.463;-100.488;7.866
1,72753E+12;2024-09-28T16.26.52.418;0.310;0.797;0.159;-0.932;-35.488;-49.634;13.720
1,72753E+12;2024-09-28T16.26.52.428;0.320;0.658;0.152;-0.947;-36.646;-33.841;15.976
1,72753E+12;2024-09-28T16.26.52.438;0.330;0.562;0.145;-0.946;-34.268;-41.341;13.659
1,72753E+12;2024-09-28T16.26.52.448;0.340;0.533;0.127;-0.932;-28.659;-60.671;8.537
1,72753E+12;2024-09-28T16.26.52.458;0.350;0.526;0.124;-0.920;-21.037;-80.122;1.220
1,72753E+12;2024-09-28T16.26.52.468;0.360;0.557;0.123;-0.924;-11.890;-88.659;-6.890
1,72753E+12;2024-09-28T16.26.52.478;0.370;0.611;0.117;-0.933;-3.171;-81.524;-11.829
1,72753E+12;2024-09-28T16.26.52.488;0.380;0.630;0.124;-0.951;3.415;-60.854;-12.439
1,72753E+12;2024-09-28T16.26.52.498;0.390;0.647;0.138;-0.968;7.988;-33.110;-10.122
1,72753E+12;2024-09-28T16.26.52.508;0.400;0.656;0.149;-0.983;10.183;-2.256;-6.829
1,72753E+12;2024-09-28T16.26.52.518;0.410;0.669;0.158;-0.980;10.427;27.012;-2.378
1,72753E+12;2024-09-28T16.26.52.528;0.420;0.645;0.152;-0.950;9.817;43.537;2.561
1,72753E+12;2024-09-28T16.26.52.538;0.430;0.565;0.147;-0.911;9.024;45.671;4.390
1,72753E+12;2024-09-28T16.26.52.548;0.440;0.557;0.143;-0.867;8.841;38.780;3.293
1,72753E+12;2024-09-28T16.26.52.558;0.450;0.574;0.136;-0.825;9.451;29.756;1.280
1,72753E+12;2024-09-28T16.26.52.568;0.460;0.576;0.127;-0.799;9.878;22.256;-0.915
1,72753E+12;2024-09-28T16.26.52.578;0.470;0.598;0.124;-0.780;9.756;19.451;-2.622
1,72753E+12;2024-09-28T16.26.52.588;0.480;0.640;0.129;-0.770;8.780;23.841;-3.110
1,72753E+12;2024-09-28T16.26.52.598;0.490;0.676;0.136;-0.771;6.524;35.671;-2.317
1,72753E+12;2024-09-28T16.26.52.608;0.500;0.719;0.145;-0.771;3.171;55.122;-0.427
1,72753E+12;2024-09-28T16.26.52.618;0.510;0.763;0.147;-0.778;-1.220;84.573;2.256
1,72753E+12;2024-09-28T16.26.52.628;0.520;0.818;0.152;-0.793;-6.341;124.329;6.463
1,72753E+12;2024-09-28T16.26.52.638;0.530;0.883;0.155;-0.794;-11.280;172.744;11.890
1,72753E+12;2024-09-28T16.26.52.648;0.540;0.933;0.155;-0.793;-15.610;226.463;18.598
1,72753E+12;2024-09-28T16.26.52.658;0.550;0.969;0.159;-0.792;-19.756;281.098;26.768
1,72753E+12;2024-09-28T16.26.52.668;0.560;1.007;0.167;-0.772;-23.841;334.634;34.634
1,72753E+12;2024-09-28T16.26.52.678;0.570;1.055;0.171;-0.740;-26.951;385.244;41.768
1,72753E+12;2024-09-28T16.26.52.688;0.580;1.087;0.173;-0.709;-29.573;432.256;49.207
1,72753E+12;2024-09-28T16.26.52.698;0.590;1.114;0.176;-0.671;-32.134;477.195;56.402
1,72753E+12;2024-09-28T16.26.52.708;0.600;1.161;0.174;-0.618;-34.085;522.134;63.049
1,72753E+12;2024-09-28T16.26.52.718;0.610;1.202;0.168;-0.550;-36.098;565.122;70.610
1,72753E+12;2024-09-28T16.26.52.728;0.620;1.208;0.165;-0.484;-38.232;604.268;77.805
1,72753E+12;2024-09-28T16.26.52.738;0.630;1.191;0.169;-0.440;-41.951;639.817;83.780
1,72753E+12;2024-09-28T16.26.52.748;0.640;1.170;0.170;-0.367;-47.073;666.098;89.939
1,72753E+12;2024-09-28T16.26.52.758;0.650;1.102;0.155;-0.289;-52.073;677.500;94.512
1,72753E+12;2024-09-28T16.26.52.768;0.660;0.986;0.149;-0.201;-56.768;677.073;96.585
1,72753E+12;2024-09-28T16.26.52.778;0.670;0.913;0.129;-0.095;-60.000;668.902;97.744
1,72753E+12;2024-09-28T16.26.52.788;0.680;0.857;0.079;0.035;-60.671;652.012;98.598
1,72753E+12;2024-09-28T16.26.52.798;0.690;0.756;0.042;0.156;-56.341;622.927;99.085
1,72753E+12;2024-09-28T16.26.52.808;0.700;0.631;-0.007;0.287;-47.683;581.098;98.415
1,72753E+12;2024-09-28T16.26.52.818;0.710;0.568;-0.027;0.396;-37.012;536.646;93.720
1,72753E+12;2024-09-28T16.26.52.828;0.720;0.581;-0.049;0.481;-26.524;489.756;84.878
1,72753E+12;2024-09-28T16.26.52.838;0.730;0.514;-0.087;0.556;-16.585;433.598;74.817
1,72753E+12;2024-09-28T16.26.52.848;0.740;0.349;-0.111;0.600;-9.268;354.817;65.122
1,72753E+12;2024-09-28T16.26.52.858;0.750;0.175;-0.114;0.664;-2.012;271.585;53.720
1,72753E+12;2024-09-28T16.26.52.868;0.760;0.169;-0.120;0.730;3.110;201.220;43.537
1,72753E+12;2024-09-28T16.26.52.878;0.770;0.212;-0.131;0.793;8.232;153.476;34.207
1,72753E+12;2024-09-28T16.26.52.888;0.780;0.241;-0.132;0.830;11.220;130.732;26.829
1,72753E+12;2024-09-28T16.26.52.898;0.790;0.261;-0.132;0.865;12.500;129.512;23.841
1,72753E+12;2024-09-28T16.26.52.908;0.800;0.294;-0.130;0.887;10.488;139.085;22.561
1,72753E+12;2024-09-28T16.26.52.918;0.810;0.265;-0.131;0.918;8.598;148.598;22.256
1,72753E+12;2024-09-28T16.26.52.928;0.820;0.218;-0.123;0.940;5.793;150.732;22.195
1,72753E+12;2024-09-28T16.26.52.938;0.830;0.163;-0.123;0.959;3.232;136.037;21.159
1,72753E+12;2024-09-28T16.26.52.948;0.840;0.056;-0.130;0.983;4.024;103.110;18.780
1,72753E+12;2024-09-28T16.26.52.958;0.850;-0.009;-0.132;1.005;7.439;61.890;15.488
1,72753E+12;2024-09-28T16.26.52.968;0.860;0.002;-0.126;1.016;11.037;24.512;10.427
1,72753E+12;2024-09-28T16.26.52.978;0.870;0.030;-0.117;1.026;14.268;-3.841;5.000
1,72753E+12;2024-09-28T16.26.52.988;0.880;0.067;-0.101;1.036;17.317;-12.134;0.305
1,72753E+12;2024-09-28T16.26.52.998;0.890;0.174;-0.078;1.021;15.671;5.488;-2.256
1,72753E+12;2024-09-28T16.26.53.008;0.900;0.265;-0.063;0.997;7.500;36.463;-2.622
1,72753E+12;2024-09-28T16.26.53.018;0.910;0.246;-0.056;0.985;-2.012;58.841;-1.463
1,72753E+12;2024-09-28T16.26.53.028;0.920;0.141;-0.062;0.984;-7.378;58.476;1.463
1,72753E+12;2024-09-28T16.26.53.038;0.930;0.067;-0.078;0.996;-8.049;38.110;2.439
1,72753E+12;2024-09-28T16.26.53.048;0.940;0.052;-0.087;1.011;-5.366;10.183;-0.366
1,72753E+12;2024-09-28T16.26.53.058;0.950;0.057;-0.101;1.015;-1.037;-15.976;-3.720
1,72753E+12;2024-09-28T16.26.53.068;0.960;0.089;-0.101;0.998;3.049;-34.024;-6.098
1,72753E+12;2024-09-28T16.26.53.078;0.970;0.143;-0.090;0.974;5.427;-37.866;-7.378
1,72753E+12;2024-09-28T16.26.53.088;0.980;0.218;-0.080;0.957;5.000;-25.000;-7.317
1,72753E+12;2024-09-28T16.26.53.098;0.990;0.277;-0.071;0.948;1.951;-3.841;-6.037
1,72753E+12;2024-09-28T16.26.53.108;1.000;0.265;-0.072;0.938;-1.463;13.659;-3.841
1,72753E+12;2024-09-28T16.26.53.118;1.010;0.225;-0.085;0.945;-2.744;19.329;-1.707
1,72753E+12;2024-09-28T16.26.53.128;1.020;0.191;-0.101;0.958;-1.829;11.463;-1.037
1,72753E+12;2024-09-28T16.26.53.138;1.030;0.149;-0.112;0.965;1.280;-4.268;-1.890
1,72753E+12;2024-09-28T16.26.53.148;1.040;0.134;-0.119;0.973;4.817;-22.073;-2.805
1,72753E+12;2024-09-28T16.26.53.158;1.050;0.150;-0.121;0.974;7.622;-38.232;-4.146
1,72753E+12;2024-09-28T16.26.53.168;1.060;0.163;-0.118;0.967;9.634;-51.220;-5.549
1,72753E+12;2024-09-28T16.26.53.178;1.070;0.163;-0.112;0.955;10.793;-65.427;-6.159
1,72753E+12;2024-09-28T16.26.53.188;1.080;0.152;-0.112;0.942;12.195;-86.646;-7.134
1,72753E+12;2024-09-28T16.26.53.198;1.090;0.129;-0.109;0.926;14.817;-117.866;-8.720
1,72753E+12;2024-09-28T16.26.53.208;1.100;0.101;-0.105;0.912;18.110;-157.256;-10.793
1,72753E+12;2024-09-28T16.26.53.218;1.110;0.105;-0.107;0.893;22.134;-200.915;-13.171
1,72753E+12;2024-09-28T16.26.53.228;1.120;0.139;-0.107;0.880;25.976;-247.195;-16.524
1,72753E+12;2024-09-28T16.26.53.238;1.130;0.172;-0.100;0.856;29.695;-299.878;-20.732
1,72753E+12;2024-09-28T16.26.53.248;1.140;0.176;-0.094;0.826;34.756;-354.329;-26.524
1,72753E+12;2024-09-28T16.26.53.258;1.150;0.238;-0.081;0.789;38.841;-403.415;-32.683
1,72753E+12;2024-09-28T16.26.53.268;1.160;0.350;-0.083;0.722;42.073;-459.939;-37.561
1,72753E+12;2024-09-28T16.26.53.278;1.170;0.342;-0.083;0.642;45.427;-525.122;-46.280
1,72753E+12;2024-09-28T16.26.53.288;1.180;0.352;-0.030;0.562;47.561;-582.500;-58.476
1,72753E+12;2024-09-28T16.26.53.298;1.190;0.542;-0.011;0.480;50.305;-620.976;-69.207
1,72753E+12;2024-09-28T16.26.53.308;1.200;0.695;0.012;0.419;54.268;-641.768;-78.171
1,72753E+12;2024-09-28T16.26.53.318;1.210;0.743;0.023;0.329;59.268;-662.927;-80.732
1,72753E+12;2024-09-28T16.26.53.328;1.220;0.730;0.053;0.196;61.829;-688.537;-81.159
1,72753E+12;2024-09-28T16.26.53.338;1.230;0.750;0.099;0.040;60.305;-711.098;-82.134
1,72753E+12;2024-09-28T16.26.53.348;1.240;0.846;0.151;-0.099;55.610;-714.207;-84.329
1,72753E+12;2024-09-28T16.26.53.358;1.250;0.989;0.173;-0.214;51.585;-693.659;-83.902
1,72753E+12;2024-09-28T16.26.53.368;1.260;1.057;0.176;-0.303;46.098;-659.878;-78.293
1,72753E+12;2024-09-28T16.26.53.378;1.270;1.038;0.194;-0.407;39.390;-623.781;-71.341
1,72753E+12;2024-09-28T16.26.53.388;1.280;1.012;0.210;-0.513;29.695;-585.488;-65.366
1,72753E+12;2024-09-28T16.26.53.398;1.290;1.032;0.220;-0.613;18.720;-537.439;-59.146
1,72753E+12;2024-09-28T16.26.53.408;1.300;1.095;0.216;-0.681;8.902;-475.183;-51.341
1,72753E+12;2024-09-28T16.26.53.418;1.310;1.153;0.210;-0.714;0.488;-398.598;-43.720
1,72753E+12;2024-09-28T16.26.53.428;1.320;1.197;0.200;-0.739;-5.915;-312.012;-37.683
1,72753E+12;2024-09-28T16.26.53.438;1.330;1.190;0.185;-0.768;-10.854;-224.085;-30.000
1,72753E+12;2024-09-28T16.26.53.448;1.340;1.120;0.168;-0.793;-13.598;-145.854;-20.671
1,72753E+12;2024-09-28T16.26.53.458;1.350;1.012;0.154;-0.817;-13.415;-91.829;-11.829
1,72753E+12;2024-09-28T16.26.53.468;1.360;0.869;0.153;-0.843;-12.988;-63.537;-4.512
1,72753E+12;2024-09-28T16.26.53.478;1.370;0.794;0.173;-0.865;-12.622;-52.561;-2.439
1,72753E+12;2024-09-28T16.26.53.488;1.380;0.804;0.183;-0.867;-10.976;-50.427;-2.927
1,72753E+12;2024-09-28T16.26.53.498;1.390;0.767;0.178;-0.864;-7.500;-51.280;-3.049
1,72753E+12;2024-09-28T16.26.53.508;1.400;0.722;0.181;-0.858;-3.902;-52.439;-2.195
1,72753E+12;2024-09-28T16.26.53.518;1.410;0.738;0.185;-0.846;-0.366;-47.256;-1.585
1,72753E+12;2024-09-28T16.26.53.528;1.420;0.786;0.182;-0.836;2.866;-31.768;-0.732
1,72753E+12;2024-09-28T16.26.53.538;1.430;0.803;0.186;-0.831;4.817;-7.439;1.707
1,72753E+12;2024-09-28T16.26.53.548;1.440;0.801;0.187;-0.821;5.366;18.537;5.305
1,72753E+12;2024-09-28T16.26.53.558;1.450;0.767;0.180;-0.802;4.756;40.000;8.902
1,72753E+12;2024-09-28T16.26.53.568;1.460;0.720;0.174;-0.785;3.659;52.439;11.341
1,72753E+12;2024-09-28T16.26.53.578;1.470;0.676;0.171;-0.765;2.744;55.122;12.439
1,72753E+12;2024-09-28T16.26.53.588;1.480;0.641;0.157;-0.737;2.439;46.768;12.317
1,72753E+12;2024-09-28T16.26.53.598;1.490;0.604;0.160;-0.709;1.829;33.232;10.244
1,72753E+12;2024-09-28T16.26.53.608;1.500;0.626;0.151;-0.685;1.341;21.951;6.646
1,72753E+12;2024-09-28T16.26.53.618;1.510;0.670;0.150;-0.673;1.159;18.110;3.415
1,72753E+12;2024-09-28T16.26.53.628;1.520;0.695;0.154;-0.676;0.000;23.720;1.585
1,72753E+12;2024-09-28T16.26.53.638;1.530;0.741;0.167;-0.691;-3.780;43.049;1.463
1,72753E+12;2024-09-28T16.26.53.648;1.540;0.839;0.185;-0.718;-9.329;79.024;3.232
1,72753E+12;2024-09-28T16.26.53.658;1.550;0.933;0.196;-0.734;-15.671;130.793;7.073
1,72753E+12;2024-09-28T16.26.53.668;1.560;0.997;0.194;-0.735;-21.402;192.805;13.110
1,72753E+12;2024-09-28T16.26.53.678;1.570;1.046;0.190;-0.719;-25.488;259.024;21.341
1,72753E+12;2024-09-28T16.26.53.688;1.580;1.086;0.186;-0.707;-28.720;324.390;31.037
1,72753E+12;2024-09-28T16.26.53.698;1.590;1.121;0.195;-0.688;-31.890;384.451;40.976
1,72753E+12;2024-09-28T16.26.53.708;1.600;1.151;0.192;-0.650;-34.268;436.707;50.000
1,72753E+12;2024-09-28T16.26.53.718;1.610;1.156;0.192;-0.614;-37.073;483.293;57.866
1,72753E+12;2024-09-28T16.26.53.728;1.620;1.189;0.204;-0.565;-41.220;530.671;64.939
1,72753E+12;2024-09-28T16.26.53.738;1.630;1.263;0.209;-0.499;-46.159;581.829;70.976
1,72753E+12;2024-09-28T16.26.53.748;1.640;1.290;0.202;-0.425;-50.732;630.183;77.927
1,72753E+12;2024-09-28T16.26.53.758;1.650;1.212;0.188;-0.370;-54.634;664.756;85.244
1,72753E+12;2024-09-28T16.26.53.768;1.660;1.094;0.187;-0.289;-58.780;675.732;90.976
1,72753E+12;2024-09-28T16.26.53.778;1.670;0.978;0.177;-0.204;-62.256;662.927;92.256
1,72753E+12;2024-09-28T16.26.53.788;1.680;0.868;0.161;-0.096;-65.305;631.220;90.122
1,72753E+12;2024-09-28T16.26.53.798;1.690;0.767;0.127;0.036;-66.098;590.427;86.341
1,72753E+12;2024-09-28T16.26.53.808;1.700;0.714;0.097;0.164;-64.268;558.232;82.927
1,72753E+12;2024-09-28T16.26.53.818;1.710;0.729;0.053;0.283;-58.720;547.012;82.195
1,72753E+12;2024-09-28T16.26.53.828;1.720;0.743;0.007;0.374;-52.012;550.122;85.183
1,72753E+12;2024-09-28T16.26.53.838;1.730;0.719;-0.002;0.427;-45.427;558.720;84.756
1,72753E+12;2024-09-28T16.26.53.848;1.740;0.674;-0.016;0.473;-40.915;549.207;80.732
1,72753E+12;2024-09-28T16.26.53.858;1.750;0.471;-0.063;0.536;-33.110;501.341;77.256
1,72753E+12;2024-09-28T16.26.53.868;1.760;0.219;-0.074;0.600;-25.183;419.817;70.488
1,72753E+12;2024-09-28T16.26.53.878;1.770;0.091;-0.087;0.684;-17.866;325.000;61.402
1,72753E+12;2024-09-28T16.26.53.888;1.780;0.079;-0.102;0.769;-9.695;236.280;50.793
1,72753E+12;2024-09-28T16.26.53.898;1.790;0.091;-0.105;0.831;-0.610;168.598;39.573
1,72753E+12;2024-09-28T16.26.53.908;1.800;0.125;-0.114;0.864;6.646;129.634;28.902
1,72753E+12;2024-09-28T16.26.53.918;1.810;0.177;-0.121;0.900;9.268;115.976;21.890
1,72753E+12;2024-09-28T16.26.53.928;1.820;0.186;-0.113;0.927;8.354;107.439;19.512
1,72753E+12;2024-09-28T16.26.53.938;1.830;0.129;-0.114;0.956;7.927;93.598;18.232
1,72753E+12;2024-09-28T16.26.53.948;1.840;0.080;-0.103;0.971;7.988;75.366;17.622
1,72753E+12;2024-09-28T16.26.53.958;1.850;0.053;-0.093;0.984;7.805;54.512;16.463
1,72753E+12;2024-09-28T16.26.53.968;1.860;0.036;-0.098;1.012;9.329;31.402;13.110
1,72753E+12;2024-09-28T16.26.53.978;1.870;0.027;-0.098;1.038;11.646;9.146;8.171
1,72753E+12;2024-09-28T16.26.53.988;1.880;0.035;-0.092;1.048;13.476;-8.963;4.329
1,72753E+12;2024-09-28T16.26.53.998;1.890;0.068;-0.083;1.049;13.354;-21.280;1.707
1,72753E+12;2024-09-28T16.26.54.008;1.900;0.097;-0.068;1.044;11.707;-25.000;-0.183
1,72753E+12;2024-09-28T16.26.54.018;1.910;0.141;-0.055;1.039;8.720;-15.061;-1.463
1,72753E+12;2024-09-28T16.26.54.028;1.920;0.200;-0.046;1.020;2.195;6.098;-1.951
1,72753E+12;2024-09-28T16.26.54.038;1.930;0.225;-0.049;1.009;-4.634;23.232;-0.854
1,72753E+12;2024-09-28T16.26.54.048;1.940;0.184;-0.052;1.008;-7.988;25.488;-0.793
1,72753E+12;2024-09-28T16.26.54.058;1.950;0.120;-0.063;1.005;-7.988;12.073;-1.220
1,72753E+12;2024-09-28T16.26.54.068;1.960;0.095;-0.076;0.995;-5.793;-8.537;-2.805
1,72753E+12;2024-09-28T16.26.54.078;1.970;0.122;-0.080;0.986;-2.683;-26.951;-5.793
1,72753E+12;2024-09-28T16.26.54.088;1.980;0.153;-0.078;0.972;0.610;-37.439;-7.866
1,72753E+12;2024-09-28T16.26.54.098;1.990;0.186;-0.070;0.955;2.561;-35.366;-8.171
1,72753E+12;2024-09-28T16.26.54.108;2.000;0.244;-0.062;0.938;1.280;-22.683;-7.439
1,72753E+12;2024-09-28T16.26.54.118;2.010;0.277;-0.062;0.936;-0.732;-7.866;-6.341
1,72753E+12;2024-09-28T16.26.54.128;2.020;0.256;-0.067;0.937;-1.707;0.488;-4.634
1,72753E+12;2024-09-28T16.26.54.138;2.030;0.223;-0.075;0.941;-0.488;-0.732;-3.049
1,72753E+12;2024-09-28T16.26.54.148;2.040;0.210;-0.086;0.951;1.768;-8.537;-2.744
1,72753E+12;2024-09-28T16.26.54.158;2.050;0.212;-0.091;0.955;4.207;-18.049;-4.024
1,72753E+12;2024-09-28T16.26.54.168;2.060;0.222;-0.093;0.952;6.220;-25.610;-5.061
1,72753E+12;2024-09-28T16.26.54.178;2.070;0.230;-0.089;0.951;7.439;-30.183;-5.000
1,72753E+12;2024-09-28T16.26.54.188;2.080;0.237;-0.084;0.953;7.683;-32.195;-4.634
1,72753E+12;2024-09-28T16.26.54.198;2.090;0.249;-0.080;0.957;7.805;-33.598;-4.268
1,72753E+12;2024-09-28T16.26.54.208;2.100;0.245;-0.077;0.962;7.988;-36.341;-4.024
1,72753E+12;2024-09-28T16.26.54.218;2.110;0.236;-0.077;0.963;8.232;-42.439;-4.024
1,72753E+12;2024-09-28T16.26.54.228;2.120;0.230;-0.072;0.966;8.963;-53.659;-4.512
1,72753E+12;2024-09-28T16.26.54.238;2.130;0.218;-0.070;0.962;10.000;-73.110;-5.244
1,72753E+12;2024-09-28T16.26.54.248;2.140;0.191;-0.072;0.956;11.402;-103.963;-6.463
1,72753E+12;2024-09-28T16.26.54.258;2.150;0.155;-0.075;0.947;13.537;-151.524;-8.232
1,72753E+12;2024-09-28T16.26.54.268;2.160;0.104;-0.080;0.935;17.927;-216.951;-10.793
1,72753E+12;2024-09-28T16.26.54.278;2.170;0.083;-0.077;0.916;24.207;-294.573;-15.732
1,72753E+12;2024-09-28T16.26.54.288;2.180;0.110;-0.065;0.881;30.915;-375.244;-23.598
1,72753E+12;2024-09-28T16.26.54.298;2.190;0.178;-0.056;0.832;37.195;-450.671;-32.134
1,72753E+12;2024-09-28T16.26.54.308;2.200;0.273;-0.061;0.754;41.646;-523.110;-38.171
1,72753E+12;2024-09-28T16.26.54.318;2.210;0.346;-0.037;0.669;45.915;-592.561;-47.561
1,72753E+12;2024-09-28T16.26.54.328;2.220;0.402;-0.026;0.588;50.976;-661.402;-57.073
1,72753E+12;2024-09-28T16.26.54.338;2.230;0.444;-0.014;0.484;56.829;-725.305;-66.037
1,72753E+12;2024-09-28T16.26.54.348;2.240;0.526;0.026;0.338;61.585;-780.549;-75.000
1,72753E+12;2024-09-28T16.26.54.358;2.250;0.606;0.048;0.176;64.146;-822.927;-81.159
1,72753E+12;2024-09-28T16.26.54.368;2.260;0.670;0.094;-0.005;61.341;-843.841;-84.207
1,72753E+12;2024-09-28T16.26.54.378;2.270;0.793;0.144;-0.161;55.122;-832.073;-84.268
1,72753E+12;2024-09-28T16.26.54.388;2.280;0.960;0.164;-0.286;48.415;-787.256;-79.451
1,72753E+12;2024-09-28T16.26.54.398;2.290;1.071;0.178;-0.381;41.098;-727.439;-70.732
1,72753E+12;2024-09-28T16.26.54.408;2.300;1.047;0.190;-0.472;32.012;-665.549;-58.963
1,72753E+12;2024-09-28T16.26.54.418;2.310;0.997;0.195;-0.578;21.037;-607.744;-47.561
1,72753E+12;2024-09-28T16.26.54.428;2.320;0.995;0.217;-0.676;9.390;-542.866;-40.671
1,72753E+12;2024-09-28T16.26.54.438;2.330;1.058;0.188;-0.730;0.549;-468.598;-35.549
1,72753E+12;2024-09-28T16.26.54.448;2.340;1.083;0.170;-0.749;-6.585;-385.610;-30.305
1,72753E+12;2024-09-28T16.26.54.458;2.350;1.061;0.159;-0.777;-10.732;-305.854;-26.463
1,72753E+12;2024-09-28T16.26.54.468;2.360;0.969;0.142;-0.826;-13.049;-239.878;-21.951
1,72753E+12;2024-09-28T16.26.54.478;2.370;0.858;0.139;-0.885;-14.512;-191.768;-16.463
1,72753E+12;2024-09-28T16.26.54.488;2.380;0.777;0.141;-0.931;-13.963;-159.878;-12.988
1,72753E+12;2024-09-28T16.26.54.498;2.390;0.729;0.145;-0.957;-12.378;-138.841;-10.854
1,72753E+12;2024-09-28T16.26.54.508;2.400;0.703;0.151;-0.982;-9.817;-120.427;-10.244
1,72753E+12;2024-09-28T16.26.54.518;2.410;0.698;0.152;-1.004;-6.280;-102.073;-10.305
1,72753E+12;2024-09-28T16.26.54.528;2.420;0.670;0.155;-1.023;-3.171;-85.122;-8.780
1,72753E+12;2024-09-28T16.26.54.538;2.430;0.626;0.164;-1.044;-0.976;-68.659;-6.402
1,72753E+12;2024-09-28T16.26.54.548;2.440;0.629;0.174;-1.046;0.427;-54.512;-2.805
1,72753E+12;2024-09-28T16.26.54.558;2.450;0.625;0.178;-1.018;1.524;-44.207;-0.488
1,72753E+12;2024-09-28T16.26.54.568;2.460;0.600;0.171;-0.977;3.963;-37.988;-0.366
1,72753E+12;2024-09-28T16.26.54.578;2.470;0.573;0.159;-0.940;6.829;-33.841;-0.061
1,72753E+12;2024-09-28T16.26.54.588;2.480;0.566;0.158;-0.917;8.780;-29.817;-0.854
1,72753E+12;2024-09-28T16.26.54.598;2.490;0.569;0.158;-0.895;9.512;-23.293;-2.012
1,72753E+12;2024-09-28T16.26.54.608;2.500;0.566;0.159;-0.881;9.451;-13.110;-2.439
1,72753E+12;2024-09-28T16.26.54.618;2.510;0.582;0.160;-0.871;8.476;1.037;-1.707
1,72753E+12;2024-09-28T16.26.54.628;2.520;0.599;0.160;-0.858;6.707;16.037;-0.244
1,72753E+12;2024-09-28T16.26.54.638;2.530;0.598;0.161;-0.845;4.573;29.146;1.220
1,72753E+12;2024-09-28T16.26.54.648;2.540;0.594;0.158;-0.836;2.439;39.512;3.171
1,72753E+12;2024-09-28T16.26.54.658;2.550;0.592;0.160;-0.833;-0.366;47.866;5.427
1,72753E+12;2024-09-28T16.26.54.668;2.560;0.615;0.163;-0.834;-3.415;58.171;7.256
1,72753E+12;2024-09-28T16.26.54.678;2.570;0.658;0.169;-0.844;-7.073;76.341;8.963
1,72753E+12;2024-09-28T16.26.54.688;2.580;0.721;0.172;-0.850;-11.098;105.305;11.646
1,72753E+12;2024-09-28T16.26.54.698;2.590;0.790;0.174;-0.863;-15.610;149.146;15.244
1,72753E+12;2024-09-28T16.26.54.708;2.600;0.875;0.185;-0.881;-21.098;209.878;20.488
1,72753E+12;2024-09-28T16.26.54.718;2.610;0.981;0.192;-0.885;-26.707;283.232;28.110
1,72753E+12;2024-09-28T16.26.54.728;2.620;1.055;0.178;-0.860;-30.610;359.268;37.805
1,72753E+12;2024-09-28T16.26.54.738;2.630;1.062;0.166;-0.826;-32.622;427.561;48.720
1,72753E+12;2024-09-28T16.26.54.748;2.640;1.047;0.173;-0.782;-33.598;483.232;59.024
1,72753E+12;2024-09-28T16.26.54.758;2.650;1.057;0.178;-0.731;-34.634;525.732;67.378
1,72753E+12;2024-09-28T16.26.54.768;2.660;1.061;0.182;-0.676;-36.341;556.220;74.634
1,72753E+12;2024-09-28T16.26.54.778;2.670;1.053;0.180;-0.608;-38.598;577.805;79.573
1,72753E+12;2024-09-28T16.26.54.788;2.680;1.078;0.199;-0.536;-42.561;600.427;82.622
1,72753E+12;2024-09-28T16.26.54.798;2.690;1.146;0.190;-0.458;-47.317;627.195;85.854
1,72753E+12;2024-09-28T16.26.54.808;2.700;1.167;0.173;-0.377;-51.829;653.963;88.902
1,72753E+12;2024-09-28T16.26.54.818;2.710;1.093;0.145;-0.296;-55.488;669.085;92.561
1,72753E+12;2024-09-28T16.26.54.828;2.720;0.978;0.128;-0.207;-57.561;664.634;95.061
1,72753E+12;2024-09-28T16.26.54.838;2.730;0.872;0.115;-0.112;-58.659;645.061;93.659
1,72753E+12;2024-09-28T16.26.54.848;2.740;0.805;0.085;0.006;-58.293;618.781;91.768
1,72753E+12;2024-09-28T16.26.54.858;2.750;0.778;0.053;0.132;-54.634;597.378;90.305
1,72753E+12;2024-09-28T16.26.54.868;2.760;0.781;0.023;0.253;-47.012;583.598;89.451
1,72753E+12;2024-09-28T16.26.54.878;2.770;0.740;-0.025;0.350;-36.463;568.476;89.390
1,72753E+12;2024-09-28T16.26.54.888;2.780;0.626;-0.042;0.417;-26.707;538.354;87.805
1,72753E+12;2024-09-28T16.26.54.898;2.790;0.475;-0.067;0.486;-17.683;481.768;84.085
1,72753E+12;2024-09-28T16.26.54.908;2.800;0.309;-0.098;0.580;-7.683;400.488;77.744
1,72753E+12;2024-09-28T16.26.54.918;2.810;0.187;-0.121;0.675;4.573;312.134;70.549
1,72753E+12;2024-09-28T16.26.54.928;2.820;0.209;-0.111;0.744;15.000;246.951;61.098
1,72753E+12;2024-09-28T16.26.54.938;2.830;0.340;-0.107;0.776;18.232;203.049;50.183
1,72753E+12;2024-09-28T16.26.54.948;2.840;0.366;-0.105;0.801;18.415;173.598;35.061
1,72753E+12;2024-09-28T16.26.54.958;2.850;0.339;-0.089;0.799;16.037;153.780;21.768
1,72753E+12;2024-09-28T16.26.54.968;2.860;0.291;-0.073;0.802;10.244;137.744;15.427
1,72753E+12;2024-09-28T16.26.54.978;2.870;0.221;-0.077;0.838;5.854;117.988;15.366
1,72753E+12;2024-09-28T16.26.54.988;2.880;0.176;-0.088;0.892;5.122;96.890;16.524
1,72753E+12;2024-09-28T16.26.54.998;2.890;0.170;-0.097;0.952;7.561;84.939;17.073
1,72753E+12;2024-09-28T16.26.55.008;2.900;0.219;-0.091;0.997;8.902;86.159;16.341
1,72753E+12;2024-09-28T16.26.55.018;2.910;0.237;-0.089;1.018;9.390;87.927;16.037
1,72753E+12;2024-09-28T16.26.55.028;2.920;0.182;-0.089;1.034;10.732;81.646;15.366
1,72753E+12;2024-09-28T16.26.55.038;2.930;0.135;-0.078;1.031;10.305;68.963;14.573
1,72753E+12;2024-09-28T16.26.55.048;2.940;0.129;-0.067;1.025;7.744;52.195;13.720
1,72753E+12;2024-09-28T16.26.55.058;2.950;0.128;-0.054;1.015;3.902;35.122;11.098
1,72753E+12;2024-09-28T16.26.55.068;2.960;0.138;-0.045;1.016;-0.244;21.402;6.829
1,72753E+12;2024-09-28T16.26.55.078;2.970;0.116;-0.050;1.021;-3.415;9.695;3.659
1,72753E+12;2024-09-28T16.26.55.088;2.980;0.089;-0.067;1.032;-4.573;4.268;2.805
1,72753E+12;2024-09-28T16.26.55.098;2.990;0.140;-0.072;1.040;-5.854;8.780;1.768
1,72753E+12;2024-09-28T16.26.55.108;3.000;0.183;-0.072;1.030;-7.744;15.366;0.305
1,72753E+12;2024-09-28T16.26.55.118;3.010;0.145;-0.077;1.011;-8.171;14.329;-0.305
1,72753E+12;2024-09-28T16.26.55.128;3.020;0.098;-0.080;0.985;-7.256;5.061;-0.488
1,72753E+12;2024-09-28T16.26.55.138;3.030;0.095;-0.084;0.965;-5.610;-7.622;-1.524
1,72753E+12;2024-09-28T16.26.55.148;3.040;0.118;-0.089;0.951;-3.963;-18.537;-3.415
1,72753E+12;2024-09-28T16.26.55.158;3.050;0.153;-0.087;0.946;-2.561;-19.817;-5.854
1,72753E+12;2024-09-28T16.26.55.168;3.060;0.201;-0.083;0.938;-2.866;-12.622;-6.829
1,72753E+12;2024-09-28T16.26.55.178;3.070;0.221;-0.090;0.936;-3.354;-6.159;-7.439
1,72753E+12;2024-09-28T16.26.55.188;3.080;0.195;-0.095;0.942;-2.195;-3.354;-7.866
1,72753E+12;2024-09-28T16.26.55.198;3.090;0.182;-0.095;0.942;-0.183;-3.780;-6.585
1,72753E+12;2024-09-28T16.26.55.208;3.100;0.194;-0.098;0.942;1.341;-3.720;-6.159
1,72753E+12;2024-09-28T16.26.55.218;3.110;0.215;-0.099;0.951;1.341;-2.683;-6.037
1,72753E+12;2024-09-28T16.26.55.228;3.120;0.219;-0.100;0.962;2.378;-4.573;-5.427
1,72753E+12;2024-09-28T16.26.55.238;3.130;0.203;-0.104;0.968;3.963;-12.378;-4.939
1,72753E+12;2024-09-28T16.26.55.248;3.140;0.184;-0.098;0.966;5.366;-25.061;-4.817
1,72753E+12;2024-09-28T16.26.55.258;3.150;0.182;-0.093;0.962;6.037;-39.146;-4.878
1,72753E+12;2024-09-28T16.26.55.268;3.160;0.190;-0.087;0.957;6.159;-52.988;-5.732
1,72753E+12;2024-09-28T16.26.55.278;3.170;0.184;-0.085;0.958;6.098;-71.463;-6.098
1,72753E+12;2024-09-28T16.26.55.288;3.180;0.159;-0.089;0.951;7.256;-99.695;-6.463
1,72753E+12;2024-09-28T16.26.55.298;3.190;0.139;-0.091;0.938;9.268;-136.524;-8.293
1,72753E+12;2024-09-28T16.26.55.308;3.200;0.135;-0.085;0.928;11.524;-182.988;-10.549
1,72753E+12;2024-09-28T16.26.55.318;3.210;0.110;-0.086;0.919;14.451;-246.524;-11.829
1,72753E+12;2024-09-28T16.26.55.328;3.220;0.089;-0.081;0.899;19.573;-318.110;-17.378
1,72753E+12;2024-09-28T16.26.55.338;3.230;0.153;-0.062;0.863;22.683;-381.220;-25.183
1,72753E+12;2024-09-28T16.26.55.348;3.240;0.275;-0.051;0.827;23.049;-432.927;-30.915
1,72753E+12;2024-09-28T16.26.55.358;3.250;0.385;-0.050;0.772;21.524;-476.646;-36.098
1,72753E+12;2024-09-28T16.26.55.368;3.260;0.469;-0.019;0.718;19.085;-509.207;-42.805
1,72753E+12;2024-09-28T16.26.55.378;3.270;0.578;-0.015;0.668;16.829;-533.110;-46.341
1,72753E+12;2024-09-28T16.26.55.388;3.280;0.668;-0.020;0.609;15.122;-549.207;-48.293
1,72753E+12;2024-09-28T16.26.55.398;3.290;0.748;-0.014;0.534;14.329;-559.634;-48.598
1,72753E+12;2024-09-28T16.26.55.408;3.300;0.825;-0.003;0.443;14.146;-570.122;-48.293
1,72753E+12;2024-09-28T16.26.55.418;3.310;0.840;-0.009;0.343;15.610;-590.427;-47.073
1,72753E+12;2024-09-28T16.26.55.428;3.320;0.796;0.001;0.220;16.159;-621.707;-45.854
1,72753E+12;2024-09-28T16.26.55.438;3.330;0.784;0.029;0.074;16.037;-654.878;-46.707
1,72753E+12;2024-09-28T16.26.55.448;3.340;0.837;0.045;-0.073;15.183;-678.841;-48.354
1,72753E+12;2024-09-28T16.26.55.458;3.350;0.882;0.058;-0.205;12.988;-693.049;-48.720
1,72753E+12;2024-09-28T16.26.55.468;3.360;0.888;0.081;-0.337;9.146;-697.561;-49.634
1,72753E+12;2024-09-28T16.26.55.478;3.370;0.906;0.119;-0.470;3.110;-684.878;-52.744
1,72753E+12;2024-09-28T16.26.55.488;3.380;0.974;0.129;-0.567;-2.866;-650.366;-55.488
1,72753E+12;2024-09-28T16.26.55.498;3.390;1.023;0.116;-0.614;-8.902;-591.281;-53.841
1,72753E+12;2024-09-28T16.26.55.508;3.400;1.031;0.100;-0.649;-13.232;-514.817;-48.049
1,72753E+12;2024-09-28T16.26.55.518;3.410;1.009;0.078;-0.669;-16.220;-428.415;-41.037
1,72753E+12;2024-09-28T16.26.55.528;3.420;1.007;0.078;-0.698;-18.780;-338.232;-32.500
1,72753E+12;2024-09-28T16.26.55.538;3.430;0.989;0.071;-0.737;-20.854;-259.939;-22.256
1,72753E+12;2024-09-28T16.26.55.548;3.440;0.856;0.070;-0.785;-22.500;-209.451;-13.049
1,72753E+12;2024-09-28T16.26.55.558;3.450;0.704;0.095;-0.853;-25.488;-177.134;-10.976
1,72753E+12;2024-09-28T16.26.55.568;3.460;0.713;0.122;-0.908;-28.659;-149.512;-12.134
1,72753E+12;2024-09-28T16.26.55.578;3.470;0.752;0.115;-0.937;-29.878;-122.927;-12.134
1,72753E+12;2024-09-28T16.26.55.588;3.480;0.715;0.112;-0.961;-28.537;-97.622;-13.476
1,72753E+12;2024-09-28T16.26.55.598;3.490;0.698;0.116;-0.982;-24.878;-72.622;-13.659
1,72753E+12;2024-09-28T16.26.55.608;3.500;0.708;0.110;-0.992;-19.939;-45.793;-11.341
1,72753E+12;2024-09-28T16.26.55.618;3.510;0.705;0.112;-0.999;-13.049;-21.341;-7.195
1,72753E+12;2024-09-28T16.26.55.628;3.520;0.674;0.122;-1.013;-6.707;-1.768;-2.439
1,72753E+12;2024-09-28T16.26.55.638;3.530;0.667;0.139;-1.021;-2.622;15.976;1.098
1,72753E+12;2024-09-28T16.26.55.648;3.540;0.704;0.144;-1.006;0.549;33.841;3.476
1,72753E+12;2024-09-28T16.26.55.658;3.550;0.702;0.141;-0.981;3.476;50.671;5.732
1,72753E+12;2024-09-28T16.26.55.668;3.560;0.679;0.138;-0.948;5.854;65.244;8.171
1,72753E+12;2024-09-28T16.26.55.678;3.570;0.675;0.133;-0.917;7.561;78.963;10.488
1,72753E+12;2024-09-28T16.26.55.688;3.580;0.692;0.137;-0.894;7.988;95.183;12.134
1,72753E+12;2024-09-28T16.26.55.698;3.590;0.718;0.135;-0.864;7.500;116.524;13.963
1,72753E+12;2024-09-28T16.26.55.708;3.600;0.747;0.140;-0.845;5.305;148.720;16.585
1,72753E+12;2024-09-28T16.26.55.718;3.610;0.818;0.155;-0.859;0.366;198.841;20.000
1,72753E+12;2024-09-28T16.26.55.728;3.620;0.943;0.160;-0.850;-5.488;262.256;25.244
1,72753E+12;2024-09-28T16.26.55.738;3.630;1.007;0.145;-0.816;-10.976;331.707;32.622
1,72753E+12;2024-09-28T16.26.55.748;3.640;1.016;0.136;-0.781;-15.427;397.622;42.012
1,72753E+12;2024-09-28T16.26.55.758;3.650;1.028;0.136;-0.745;-19.024;457.195;51.768
1,72753E+12;2024-09-28T16.26.55.768;3.660;1.054;0.140;-0.718;-23.780;513.232;60.366
1,72753E+12;2024-09-28T16.26.55.778;3.670;1.109;0.134;-0.658;-29.268;562.805;68.476
1,72753E+12;2024-09-28T16.26.55.788;3.680;1.114;0.124;-0.585;-34.451;606.585;75.244
1,72753E+12;2024-09-28T16.26.55.798;3.690;1.101;0.124;-0.523;-38.415;645.793;82.683
1,72753E+12;2024-09-28T16.26.55.808;3.700;1.118;0.116;-0.439;-41.402;676.707;90.915
1,72753E+12;2024-09-28T16.26.55.818;3.710;1.097;0.109;-0.348;-43.598;696.463;97.256
1,72753E+12;2024-09-28T16.26.55.828;3.720;1.034;0.099;-0.273;-45.427;700.732;99.695
1,72753E+12;2024-09-28T16.26.55.838;3.730;0.941;0.086;-0.179;-47.256;685.244;99.878
1,72753E+12;2024-09-28T16.26.55.848;3.740;0.826;0.067;-0.062;-47.561;655.793;97.927
1,72753E+12;2024-09-28T16.26.55.858;3.750;0.760;0.033;0.061;-44.085;615.854;95.000
1,72753E+12;2024-09-28T16.26.55.868;3.760;0.687;-0.014;0.194;-37.073;566.768;91.890
1,72753E+12;2024-09-28T16.26.55.878;3.770;0.608;-0.041;0.313;-26.829;514.207;87.500
1,72753E+12;2024-09-28T16.26.55.888;3.780;0.559;-0.070;0.411;-15.244;458.476;82.012
1,72753E+12;2024-09-28T16.26.55.898;3.790;0.514;-0.079;0.491;-4.512;403.963;74.634
1,72753E+12;2024-09-28T16.26.55.908;3.800;0.509;-0.086;0.557;5.976;361.037;65.793
1,72753E+12;2024-09-28T16.26.55.918;3.810;0.532;-0.082;0.600;12.195;333.110;56.951
1,72753E+12;2024-09-28T16.26.55.928;3.820;0.513;-0.092;0.632;12.866;307.927;49.939
1,72753E+12;2024-09-28T16.26.55.938;3.830;0.412;-0.106;0.665;11.768;272.317;43.415
1,72753E+12;2024-09-28T16.26.55.948;3.840;0.285;-0.110;0.729;13.049;228.780;38.659
1,72753E+12;2024-09-28T16.26.55.958;3.850;0.254;-0.108;0.801;14.756;194.146;35.000
1,72753E+12;2024-09-28T16.26.55.968;3.860;0.315;-0.109;0.863;14.390;177.988;29.939
1,72753E+12;2024-09-28T16.26.55.978;3.870;0.334;-0.115;0.907;11.280;170.976;25.671
1,72753E+12;2024-09-28T16.26.55.988;3.880;0.263;-0.132;0.951;10.549;159.329;24.024
1,72753E+12;2024-09-28T16.26.55.998;3.890;0.206;-0.128;0.990;10.793;144.878;21.402
1,72753E+12;2024-09-28T16.26.56.008;3.900;0.186;-0.130;1.019;9.695;127.012;19.451
1,72753E+12;2024-09-28T16.26.56.018;3.910;0.136;-0.129;1.042;9.085;105.366;17.683
1,72753E+12;2024-09-28T16.26.56.028;3.920;0.102;-0.123;1.052;7.561;80.976;15.793
1,72753E+12;2024-09-28T16.26.56.038;3.930;0.078;-0.117;1.055;5.854;55.549;13.537
1,72753E+12;2024-09-28T16.26.56.048;3.940;0.073;-0.107;1.054;5.061;33.293;11.037
1,72753E+12;2024-09-28T16.26.56.058;3.950;0.094;-0.093;1.050;2.805;21.524;7.317
1,72753E+12;2024-09-28T16.26.56.068;3.960;0.126;-0.084;1.036;-1.220;19.329;5.061
1,72753E+12;2024-09-28T16.26.56.078;3.970;0.151;-0.080;1.028;-5.305;22.805;3.780
1,72753E+12;2024-09-28T16.26.56.088;3.980;0.173;-0.081;1.016;-8.963;26.463;2.988
1,72753E+12;2024-09-28T16.26.56.098;3.990;0.151;-0.087;1.005;-10.976;27.805;2.683
1,72753E+12;2024-09-28T16.26.56.108;4.000;0.136;-0.097;0.987;-11.463;25.427;2.927
1,72753E+12;2024-09-28T16.26.56.118;4.010;0.145;-0.106;0.981;-10.732;20.122;1.463
1,72753E+12;2024-09-28T16.26.56.128;4.020;0.137;-0.113;0.967;-9.024;12.195;-0.427
1,72753E+12;2024-09-28T16.26.56.138;4.030;0.130;-0.118;0.950;-6.280;0.244;-1.402
1,72753E+12;2024-09-28T16.26.56.148;4.040;0.125;-0.121;0.937;-2.805;-12.500;-2.683
1,72753E+12;2024-09-28T16.26.56.158;4.050;0.145;-0.116;0.921;-0.671;-18.841;-4.024
1,72753E+12;2024-09-28T16.26.56.168;4.060;0.181;-0.111;0.913;0.915;-18.720;-4.878
1,72753E+12;2024-09-28T16.26.56.178;4.070;0.195;-0.111;0.915;2.439;-12.439;-5.488
1,72753E+12;2024-09-28T16.26.56.188;4.080;0.220;-0.113;0.924;2.622;-1.402;-5.122
1,72753E+12;2024-09-28T16.26.56.198;4.090;0.237;-0.117;0.935;2.317;7.622;-4.634
1,72753E+12;2024-09-28T16.26.56.208;4.100;0.204;-0.122;0.948;3.354;7.256;-4.024
1,72753E+12;2024-09-28T16.26.56.218;4.110;0.162;-0.128;0.960;5.122;-2.134;-3.780
1,72753E+12;2024-09-28T16.26.56.228;4.120;0.150;-0.131;0.964;6.951;-14.939;-4.451
1,72753E+12;2024-09-28T16.26.56.238;4.130;0.158;-0.127;0.967;8.293;-28.232;-5.244
1,72753E+12;2024-09-28T16.26.56.248;4.140;0.160;-0.129;0.974;9.695;-41.037;-6.341
1,72753E+12;2024-09-28T16.26.56.258;4.150;0.168;-0.129;0.971;10.732;-54.512;-7.134
1,72753E+12;2024-09-28T16.26.56.268;4.160;0.170;-0.125;0.962;11.646;-71.890;-7.988
1,72753E+12;2024-09-28T16.26.56.278;4.170;0.157;-0.123;0.953;12.561;-96.220;-9.390
1,72753E+12;2024-09-28T16.26.56.288;4.180;0.137;-0.119;0.942;14.512;-128.598;-10.854
1,72753E+12;2024-09-28T16.26.56.298;4.190;0.126;-0.118;0.924;17.012;-168.232;-13.171
1,72753E+12;2024-09-28T16.26.56.308;4.200;0.134;-0.114;0.899;20.122;-215.793;-16.098
1,72753E+12;2024-09-28T16.26.56.318;4.210;0.145;-0.107;0.873;23.902;-265.854;-20.366
1,72753E+12;2024-09-28T16.26.56.328;4.220;0.191;-0.098;0.845;26.220;-317.256;-24.451
1,72753E+12;2024-09-28T16.26.56.338;4.230;0.234;-0.094;0.816;29.024;-374.146;-27.622
1,72753E+12;2024-09-28T16.26.56.348;4.240;0.273;-0.092;0.766;31.829;-437.012;-33.049
1,72753E+12;2024-09-28T16.26.56.358;4.250;0.340;-0.074;0.692;32.134;-495.854;-42.012
1,72753E+12;2024-09-28T16.26.56.368;4.260;0.447;-0.036;0.640;31.829;-539.207;-50.793
1,72753E+12;2024-09-28T16.26.56.378;4.270;0.600;-0.023;0.592;32.012;-566.341;-57.317
1,72753E+12;2024-09-28T16.26.56.388;4.280;0.707;-0.011;0.525;32.256;-582.500;-62.988
1,72753E+12;2024-09-28T16.26.56.398;4.290;0.775;0.007;0.446;31.402;-593.232;-66.585
1,72753E+12;2024-09-28T16.26.56.408;4.300;0.830;0.027;0.361;31.585;-608.171;-67.500
1,72753E+12;2024-09-28T16.26.56.418;4.310;0.814;0.026;0.253;30.488;-636.890;-65.183
1,72753E+12;2024-09-28T16.26.56.428;4.320;0.778;0.073;0.104;27.012;-669.878;-65.976
1,72753E+12;2024-09-28T16.26.56.438;4.330;0.849;0.089;-0.038;25.366;-700.488;-67.744
1,72753E+12;2024-09-28T16.26.56.448;4.340;0.869;0.088;-0.172;21.585;-725.366;-66.463
1,72753E+12;2024-09-28T16.26.56.458;4.350;0.857;0.141;-0.335;14.695;-736.341;-67.683
1,72753E+12;2024-09-28T16.26.56.468;4.360;0.965;0.179;-0.482;4.573;-717.500;-71.098
1,72753E+12;2024-09-28T16.26.56.478;4.370;1.113;0.171;-0.570;-4.756;-658.354;-72.744
1,72753E+12;2024-09-28T16.26.56.488;4.380;1.203;0.141;-0.597;;;
1,72753E+12;2024-09-28T16.26.56.498;4.390;1.157;0.107;-0.607;;;
