epoc (ms);timestamp (+0300);elapsed (s);acc_x;acc_y;acc_z;gyr_x;gyr_y;gyr_z
1,72753E+12;2024-09-28T16.40.29.056;0.000;0.133;0.062;0.906;-3.476;-18.720;2.378
1,72753E+12;2024-09-28T16.40.29.066;0.010;0.053;0.070;0.919;-2.683;-23.171;1.585
1,72753E+12;2024-09-28T16.40.29.076;0.020;0.088;0.070;0.940;-0.915;-40.061;0.915
1,72753E+12;2024-09-28T16.40.29.086;0.030;0.181;0.064;0.947;2.378;-48.476;-0.061
1,72753E+12;2024-09-28T16.40.29.096;0.040;0.232;0.066;0.941;3.720;-41.341;-0.427
1,72753E+12;2024-09-28T16.40.29.106;0.050;0.275;0.072;0.932;3.110;-24.268;-1.037
1,72753E+12;2024-09-28T16.40.29.116;0.060;0.326;0.083;0.930;1.585;0.732;-2.561
1,72753E+12;2024-09-28T16.40.29.126;0.070;0.349;0.085;0.927;0.244;26.220;-3.232
1,72753E+12;2024-09-28T16.40.29.136;0.080;0.318;0.086;0.922;-1.280;45.915;-3.841
1,72753E+12;2024-09-28T16.40.29.146;0.090;0.257;0.081;0.927;-2.134;52.012;-2.927
1,72753E+12;2024-09-28T16.40.29.156;0.100;0.168;0.077;0.947;-1.524;37.805;-1.463
1,72753E+12;2024-09-28T16.40.29.166;0.110;0.090;0.078;0.982;1.098;7.439;-2.744
1,72753E+12;2024-09-28T16.40.29.176;0.120;0.064;0.071;1.014;4.512;-21.951;-4.695
1,72753E+12;2024-09-28T16.40.29.186;0.130;0.141;0.074;1.034;6.768;-33.232;-6.463
1,72753E+12;2024-09-28T16.40.29.196;0.140;0.277;0.082;1.052;8.841;-25.793;-7.073
1,72753E+12;2024-09-28T16.40.29.206;0.150;0.311;0.079;1.057;10.671;-8.232;-7.744
1,72753E+12;2024-09-28T16.40.29.216;0.160;0.290;0.080;1.047;9.573;11.951;-6.707
1,72753E+12;2024-09-28T16.40.29.226;0.170;0.292;0.086;1.049;7.439;30.549;-5.061
1,72753E+12;2024-09-28T16.40.29.236;0.180;0.255;0.078;1.052;5.122;42.012;-3.720
1,72753E+12;2024-09-28T16.40.29.246;0.190;0.176;0.074;1.036;0.427;40.915;-2.256
1,72753E+12;2024-09-28T16.40.29.256;0.200;0.115;0.085;1.021;-5.488;29.512;-2.134
1,72753E+12;2024-09-28T16.40.29.266;0.210;0.098;0.089;1.021;-9.756;13.841;-2.439
1,72753E+12;2024-09-28T16.40.29.276;0.220;0.099;0.088;1.024;-12.256;0.610;-3.232
1,72753E+12;2024-09-28T16.40.29.286;0.230;0.131;0.086;1.019;-13.232;-5.549;-3.841
1,72753E+12;2024-09-28T16.40.29.296;0.240;0.173;0.087;0.999;-13.354;-2.683;-4.268
1,72753E+12;2024-09-28T16.40.29.306;0.250;0.200;0.084;0.975;-13.598;6.951;-3.963
1,72753E+12;2024-09-28T16.40.29.316;0.260;0.227;0.074;0.951;-13.537;19.939;-4.146
1,72753E+12;2024-09-28T16.40.29.326;0.270;0.232;0.064;0.931;-12.500;28.780;-4.634
1,72753E+12;2024-09-28T16.40.29.336;0.280;0.171;0.056;0.910;-11.829;26.220;-4.024
1,72753E+12;2024-09-28T16.40.29.346;0.290;0.110;0.050;0.911;-11.280;14.085;-4.085
1,72753E+12;2024-09-28T16.40.29.356;0.300;0.110;0.045;0.919;-9.878;2.561;-4.634
1,72753E+12;2024-09-28T16.40.29.366;0.310;0.166;0.057;0.929;-8.537;-0.122;-5.976
1,72753E+12;2024-09-28T16.40.29.376;0.320;0.211;0.054;0.934;-7.622;7.317;-6.646
1,72753E+12;2024-09-28T16.40.29.386;0.330;0.228;0.053;0.932;-7.317;20.854;-6.402
1,72753E+12;2024-09-28T16.40.29.396;0.340;0.241;0.067;0.925;-7.866;38.049;-6.280
1,72753E+12;2024-09-28T16.40.29.406;0.350;0.253;0.073;0.925;-8.232;55.732;-6.037
1,72753E+12;2024-09-28T16.40.29.416;0.360;0.225;0.060;0.926;-7.134;64.756;-4.390
1,72753E+12;2024-09-28T16.40.29.426;0.370;0.137;0.049;0.922;-5.427;59.390;-2.561
1,72753E+12;2024-09-28T16.40.29.436;0.380;0.069;0.036;0.927;-3.598;44.024;-1.707
1,72753E+12;2024-09-28T16.40.29.446;0.390;0.077;0.040;0.950;-0.793;29.024;-2.744
1,72753E+12;2024-09-28T16.40.29.456;0.400;0.123;0.046;0.971;2.195;21.951;-5.000
1,72753E+12;2024-09-28T16.40.29.466;0.410;0.135;0.036;0.977;4.024;24.939;-5.305
1,72753E+12;2024-09-28T16.40.29.476;0.420;0.157;0.051;0.974;3.780;34.390;-4.756
1,72753E+12;2024-09-28T16.40.29.486;0.430;0.193;0.077;0.976;1.341;49.024;-6.280
1,72753E+12;2024-09-28T16.40.29.496;0.440;0.207;0.079;0.979;-1.037;67.378;-7.988
1,72753E+12;2024-09-28T16.40.29.506;0.450;0.175;0.080;0.976;-3.720;83.598;-7.134
1,72753E+12;2024-09-28T16.40.29.516;0.460;0.119;0.080;0.973;-6.890;84.146;-3.598
1,72753E+12;2024-09-28T16.40.29.526;0.470;0.001;0.080;0.977;-9.573;61.768;-3.171
1,72753E+12;2024-09-28T16.40.29.536;0.480;-0.120;0.057;0.990;-10.122;24.329;-3.902
1,72753E+12;2024-09-28T16.40.29.546;0.490;-0.122;0.035;1.006;-8.720;-8.537;-4.268
1,72753E+12;2024-09-28T16.40.29.556;0.500;-0.009;0.040;1.033;-5.183;-23.293;-5.305
1,72753E+12;2024-09-28T16.40.29.566;0.510;0.092;0.053;1.024;-3.354;-18.171;-5.427
1,72753E+12;2024-09-28T16.40.29.576;0.520;0.183;0.088;0.982;-8.902;14.573;-7.256
1,72753E+12;2024-09-28T16.40.29.586;0.530;0.342;0.094;0.958;-16.585;78.780;-10.000
1,72753E+12;2024-09-28T16.40.29.596;0.540;0.451;0.074;0.943;-23.110;160.854;-9.451
1,72753E+12;2024-09-28T16.40.29.606;0.550;0.407;0.086;0.910;-31.646;241.402;-7.134
1,72753E+12;2024-09-28T16.40.29.616;0.560;0.309;0.112;0.855;-43.110;312.622;-7.195
1,72753E+12;2024-09-28T16.40.29.626;0.570;0.234;0.111;0.808;-57.134;383.780;-9.207
1,72753E+12;2024-09-28T16.40.29.636;0.580;0.208;0.108;0.750;-73.232;477.866;-12.256
1,72753E+12;2024-09-28T16.40.29.646;0.590;0.260;0.071;0.661;-86.707;598.354;-12.134
1,72753E+12;2024-09-28T16.40.29.656;0.600;0.243;0.025;0.536;-93.659;723.354;-11.098
1,72753E+12;2024-09-28T16.40.29.666;0.610;0.045;0.002;0.344;-97.012;830.854;-14.878
1,72753E+12;2024-09-28T16.40.29.676;0.620;-0.219;-0.055;0.135;-98.598;912.378;-15.427
1,72753E+12;2024-09-28T16.40.29.686;0.630;-0.478;-0.147;-0.048;-98.720;937.134;-11.890
1,72753E+12;2024-09-28T16.40.29.696;0.640;-0.916;-0.213;-0.219;-97.927;859.451;-7.683
1,72753E+12;2024-09-28T16.40.29.706;0.650;-1.511;-0.245;-0.202;-82.744;698.537;-8.415
1,72753E+12;2024-09-28T16.40.29.716;0.660;-1.771;-0.261;-0.026;-55.183;511.890;2.988
1,72753E+12;2024-09-28T16.40.29.726;0.670;-1.668;-0.210;0.106;-19.756;342.805;18.902
1,72753E+12;2024-09-28T16.40.29.736;0.680;-1.519;-0.174;0.177;15.488;212.500;26.829
1,72753E+12;2024-09-28T16.40.29.746;0.690;-1.355;-0.140;0.222;39.024;130.244;29.024
1,72753E+12;2024-09-28T16.40.29.756;0.700;-1.119;-0.064;0.198;47.805;91.585;28.232
1,72753E+12;2024-09-28T16.40.29.766;0.710;-0.955;0.028;0.128;41.890;81.585;25.732
1,72753E+12;2024-09-28T16.40.29.776;0.720;-0.925;0.081;0.085;25.061;85.732;25.915
1,72753E+12;2024-09-28T16.40.29.786;0.730;-0.988;0.096;0.047;2.866;91.280;28.049
1,72753E+12;2024-09-28T16.40.29.796;0.740;-1.089;0.083;0.050;-17.378;85.061;28.232
1,72753E+12;2024-09-28T16.40.29.806;0.750;-1.205;0.056;0.077;-30.244;62.378;24.573
1,72753E+12;2024-09-28T16.40.29.816;0.760;-1.283;0.010;0.078;-34.695;32.073;19.756
1,72753E+12;2024-09-28T16.40.29.826;0.770;-1.268;-0.020;0.050;-35.000;8.780;15.732
1,72753E+12;2024-09-28T16.40.29.836;0.780;-1.168;-0.027;0.021;-34.085;-1.402;11.829
1,72753E+12;2024-09-28T16.40.29.846;0.790;-1.078;-0.039;0.003;-31.463;-5.000;8.171
1,72753E+12;2024-09-28T16.40.29.856;0.800;-1.035;-0.065;-0.010;-25.854;-9.817;2.744
1,72753E+12;2024-09-28T16.40.29.866;0.810;-1.023;-0.100;-0.031;-17.866;-16.463;-2.927
1,72753E+12;2024-09-28T16.40.29.876;0.820;-1.044;-0.112;-0.053;-8.780;-24.390;-4.268
1,72753E+12;2024-09-28T16.40.29.886;0.830;-1.043;-0.108;-0.056;0.976;-32.622;-4.756
1,72753E+12;2024-09-28T16.40.29.896;0.840;-1.016;-0.101;-0.039;10.305;-38.354;-6.585
1,72753E+12;2024-09-28T16.40.29.906;0.850;-1.006;-0.083;-0.016;18.110;-44.695;-7.805
1,72753E+12;2024-09-28T16.40.29.916;0.860;-1.058;-0.071;-0.009;23.354;-57.866;-7.988
1,72753E+12;2024-09-28T16.40.29.926;0.870;-1.137;-0.064;-0.007;26.159;-83.659;-6.768
1,72753E+12;2024-09-28T16.40.29.936;0.880;-1.207;-0.051;-0.001;26.463;-122.134;-4.451
1,72753E+12;2024-09-28T16.40.29.946;0.890;-1.230;-0.032;0.033;25.549;-174.329;-0.732
1,72753E+12;2024-09-28T16.40.29.956;0.900;-1.240;-0.017;0.092;27.683;-240.671;0.610
1,72753E+12;2024-09-28T16.40.29.966;0.910;-1.287;-0.009;0.151;32.378;-309.817;-1.768
1,72753E+12;2024-09-28T16.40.29.976;0.920;-1.270;-0.006;0.200;37.378;-379.390;-0.549
1,72753E+12;2024-09-28T16.40.29.986;0.930;-1.214;0.002;0.263;42.744;-448.537;0.915
1,72753E+12;2024-09-28T16.40.29.996;0.940;-1.172;0.005;0.328;49.512;-508.415;-3.110
1,72753E+12;2024-09-28T16.40.30.006;0.950;-1.105;-0.015;0.380;58.171;-560.610;-6.829
1,72753E+12;2024-09-28T16.40.30.016;0.960;-1.052;-0.038;0.420;68.232;-602.561;-7.744
1,72753E+12;2024-09-28T16.40.30.026;0.970;-0.971;-0.037;0.446;78.171;-626.585;-7.805
1,72753E+12;2024-09-28T16.40.30.036;0.980;-0.822;-0.053;0.452;85.122;-632.134;-1.585
1,72753E+12;2024-09-28T16.40.30.046;0.990;-0.681;-0.027;0.480;86.646;-614.451;4.756
1,72753E+12;2024-09-28T16.40.30.056;1.000;-0.492;0.000;0.517;83.293;-576.646;11.220
1,72753E+12;2024-09-28T16.40.30.066;1.010;-0.332;-0.002;0.581;80.366;-534.268;17.988
1,72753E+12;2024-09-28T16.40.30.076;1.020;-0.297;-0.016;0.648;77.622;-507.622;25.061
1,72753E+12;2024-09-28T16.40.30.086;1.030;-0.339;0.013;0.682;71.646;-498.720;25.610
1,72753E+12;2024-09-28T16.40.30.096;1.040;-0.282;0.058;0.713;64.695;-486.402;22.012
1,72753E+12;2024-09-28T16.40.30.106;1.050;-0.078;0.069;0.761;61.646;-455.610;22.256
1,72753E+12;2024-09-28T16.40.30.116;1.060;0.109;0.071;0.810;59.146;-405.000;24.085
1,72753E+12;2024-09-28T16.40.30.126;1.070;0.250;0.117;0.811;48.659;-319.329;20.732
1,72753E+12;2024-09-28T16.40.30.136;1.080;0.520;0.147;0.826;37.744;-192.561;17.561
1,72753E+12;2024-09-28T16.40.30.146;1.090;0.773;0.116;0.867;31.159;-51.829;20.244
1,72753E+12;2024-09-28T16.40.30.156;1.100;0.731;0.139;0.869;19.268;60.061;22.744
1,72753E+12;2024-09-28T16.40.30.166;1.110;0.505;0.197;0.815;2.073;106.524;18.415
1,72753E+12;2024-09-28T16.40.30.176;1.120;0.243;0.236;0.798;-14.146;93.110;-2.317
1,72753E+12;2024-09-28T16.40.30.186;1.130;-0.078;0.192;0.870;-24.756;56.524;-20.061
1,72753E+12;2024-09-28T16.40.30.196;1.140;-0.244;0.072;0.948;-25.061;20.732;-11.768
1,72753E+12;2024-09-28T16.40.30.206;1.150;-0.107;0.065;0.985;-19.390;1.951;0.244
1,72753E+12;2024-09-28T16.40.30.216;1.160;0.150;0.136;1.003;-12.988;8.232;-3.110
1,72753E+12;2024-09-28T16.40.30.226;1.170;0.246;0.132;0.992;-6.280;28.171;-7.256
1,72753E+12;2024-09-28T16.40.30.236;1.180;0.186;0.111;0.957;-2.378;44.146;-4.695
1,72753E+12;2024-09-28T16.40.30.246;1.190;0.106;0.121;0.919;-2.744;51.037;-2.683
1,72753E+12;2024-09-28T16.40.30.256;1.200;0.088;0.113;0.907;-3.049;51.159;-2.927
1,72753E+12;2024-09-28T16.40.30.266;1.210;0.059;0.096;0.914;-1.585;38.232;-2.439
1,72753E+12;2024-09-28T16.40.30.276;1.220;-0.056;0.094;0.920;-2.195;7.683;-3.415
1,72753E+12;2024-09-28T16.40.30.286;1.230;-0.148;0.093;0.935;-2.195;-24.878;-5.305
1,72753E+12;2024-09-28T16.40.30.296;1.240;-0.061;0.076;0.971;1.159;-40.000;-2.805
1,72753E+12;2024-09-28T16.40.30.306;1.250;0.105;0.085;0.995;5.061;-32.256;-0.976
1,72753E+12;2024-09-28T16.40.30.316;1.260;0.193;0.101;0.990;7.195;-11.646;-0.671
1,72753E+12;2024-09-28T16.40.30.326;1.270;0.189;0.103;0.969;6.585;9.512;-0.366
1,72753E+12;2024-09-28T16.40.30.336;1.280;0.158;0.104;0.951;4.146;27.927;-0.976
1,72753E+12;2024-09-28T16.40.30.346;1.290;0.144;0.101;0.951;0.671;44.634;-1.098
1,72753E+12;2024-09-28T16.40.30.356;1.300;0.132;0.092;0.963;-1.098;51.463;0.061
1,72753E+12;2024-09-28T16.40.30.366;1.310;0.023;0.079;0.979;-1.768;39.207;0.793
1,72753E+12;2024-09-28T16.40.30.376;1.320;-0.113;0.072;0.986;-2.683;14.329;1.037
1,72753E+12;2024-09-28T16.40.30.386;1.330;-0.099;0.070;0.998;-2.378;-7.134;1.646
1,72753E+12;2024-09-28T16.40.30.396;1.340;0.008;0.087;1.023;-0.854;-12.073;0.549
1,72753E+12;2024-09-28T16.40.30.406;1.350;0.080;0.082;1.025;0.732;-3.171;-0.488
1,72753E+12;2024-09-28T16.40.30.416;1.360;0.104;0.078;1.004;0.244;15.061;-0.976
1,72753E+12;2024-09-28T16.40.30.426;1.370;0.134;0.089;0.983;-2.805;40.061;-1.585
1,72753E+12;2024-09-28T16.40.30.436;1.380;0.173;0.096;0.967;-6.890;67.622;-2.927
1,72753E+12;2024-09-28T16.40.30.446;1.390;0.164;0.105;0.961;-11.463;94.024;-5.732
1,72753E+12;2024-09-28T16.40.30.456;1.400;0.134;0.106;0.948;-16.037;119.085;-8.171
1,72753E+12;2024-09-28T16.40.30.466;1.410;0.131;0.111;0.937;-21.524;147.927;-9.695
1,72753E+12;2024-09-28T16.40.30.476;1.420;0.151;0.133;0.914;-32.683;200.122;-11.463
1,72753E+12;2024-09-28T16.40.30.486;1.430;0.303;0.178;0.859;-50.305;302.866;-15.061
1,72753E+12;2024-09-28T16.40.30.496;1.440;0.579;0.166;0.787;-69.573;465.000;-17.744
1,72753E+12;2024-09-28T16.40.30.506;1.450;0.730;0.159;0.623;-90.122;674.573;-19.756
1,72753E+12;2024-09-28T16.40.30.516;1.460;0.659;0.131;0.363;-108.963;888.171;-16.646
1,72753E+12;2024-09-28T16.40.30.526;1.470;0.303;0.084;0.037;-128.659;1.049.390;-9.695
1,72753E+12;2024-09-28T16.40.30.536;1.480;-0.383;0.055;-0.283;-152.439;1.105.793;-1.098
1,72753E+12;2024-09-28T16.40.30.546;1.490;-1.187;-0.004;-0.454;-173.232;1.030.732;12.439
1,72753E+12;2024-09-28T16.40.30.556;1.500;-1.802;-0.087;-0.418;-184.878;838.537;32.988
1,72753E+12;2024-09-28T16.40.30.566;1.510;-2.064;-0.071;-0.142;-182.134;605.305;55.427
1,72753E+12;2024-09-28T16.40.30.576;1.520;-1.916;-0.054;0.130;-155.427;384.695;80.366
1,72753E+12;2024-09-28T16.40.30.586;1.530;-1.633;-0.075;0.314;-106.037;217.195;88.354
1,72753E+12;2024-09-28T16.40.30.596;1.540;-1.257;-0.122;0.387;-51.463;131.341;70.305
1,72753E+12;2024-09-28T16.40.30.606;1.550;-0.907;-0.145;0.347;-5.793;117.622;51.341
1,72753E+12;2024-09-28T16.40.30.616;1.560;-0.830;-0.075;0.215;23.659;124.268;36.524
1,72753E+12;2024-09-28T16.40.30.626;1.570;-0.988;-0.015;0.078;38.780;102.134;23.232
1,72753E+12;2024-09-28T16.40.30.636;1.580;-1.156;0.006;0.036;45.122;53.110;13.720
1,72753E+12;2024-09-28T16.40.30.646;1.590;-1.193;0.027;0.016;41.341;15.183;10.854
1,72753E+12;2024-09-28T16.40.30.656;1.600;-1.143;0.049;-0.024;30.671;7.012;12.256
1,72753E+12;2024-09-28T16.40.30.666;1.610;-1.120;0.079;-0.049;18.841;18.902;12.683
1,72753E+12;2024-09-28T16.40.30.676;1.620;-1.106;0.097;-0.063;8.171;28.537;11.341
1,72753E+12;2024-09-28T16.40.30.686;1.630;-1.137;0.085;-0.044;1.524;18.415;9.817
1,72753E+12;2024-09-28T16.40.30.696;1.640;-1.200;0.061;0.010;1.341;-8.171;5.488
1,72753E+12;2024-09-28T16.40.30.706;1.650;-1.189;0.046;0.050;4.817;-29.817;-1.220
1,72753E+12;2024-09-28T16.40.30.716;1.660;-1.093;0.045;0.065;7.195;-35.061;-6.037
1,72753E+12;2024-09-28T16.40.30.726;1.670;-1.026;0.044;0.060;8.598;-32.561;-8.963
1,72753E+12;2024-09-28T16.40.30.736;1.680;-1.048;0.036;0.044;9.268;-32.134;-12.256
1,72753E+12;2024-09-28T16.40.30.746;1.690;-1.078;0.028;0.036;10.122;-34.695;-14.085
1,72753E+12;2024-09-28T16.40.30.756;1.700;-1.071;0.031;0.037;11.098;-36.341;-14.146
1,72753E+12;2024-09-28T16.40.30.766;1.710;-1.040;0.033;0.044;10.854;-35.427;-14.024
1,72753E+12;2024-09-28T16.40.30.776;1.720;-1.027;0.039;0.052;10.793;-33.476;-14.024
1,72753E+12;2024-09-28T16.40.30.786;1.730;-1.026;0.046;0.055;10.305;-32.012;-13.354
1,72753E+12;2024-09-28T16.40.30.796;1.740;-1.020;0.048;0.060;9.512;-32.012;-12.805
1,72753E+12;2024-09-28T16.40.30.806;1.750;-1.028;0.043;0.069;8.780;-33.598;-12.500
1,72753E+12;2024-09-28T16.40.30.816;1.760;-1.034;0.036;0.078;7.988;-35.427;-12.805
1,72753E+12;2024-09-28T16.40.30.826;1.770;-1.023;0.030;0.078;6.646;-38.171;-13.354
1,72753E+12;2024-09-28T16.40.30.836;1.780;-1.027;0.029;0.081;5.854;-44.939;-13.293
1,72753E+12;2024-09-28T16.40.30.846;1.790;-1.056;0.022;0.085;6.037;-58.841;-13.110
1,72753E+12;2024-09-28T16.40.30.856;1.800;-1.076;0.017;0.095;7.012;-79.512;-12.744
1,72753E+12;2024-09-28T16.40.30.866;1.810;-1.092;0.017;0.113;8.476;-107.012;-12.317
1,72753E+12;2024-09-28T16.40.30.876;1.820;-1.118;0.017;0.132;11.280;-142.134;-12.988
1,72753E+12;2024-09-28T16.40.30.886;1.830;-1.146;0.010;0.162;16.768;-185.244;-15.610
1,72753E+12;2024-09-28T16.40.30.896;1.840;-1.178;0.010;0.191;23.537;-232.134;-18.780
1,72753E+12;2024-09-28T16.40.30.906;1.850;-1.161;0.007;0.217;30.122;-281.159;-20.610
1,72753E+12;2024-09-28T16.40.30.916;1.860;-1.134;-0.000;0.244;36.220;-331.341;-22.927
1,72753E+12;2024-09-28T16.40.30.926;1.870;-1.127;0.010;0.281;40.976;-372.683;-24.817
1,72753E+12;2024-09-28T16.40.30.936;1.880;-1.033;0.012;0.329;42.744;-397.378;-24.085
1,72753E+12;2024-09-28T16.40.30.946;1.890;-0.909;0.024;0.381;38.415;-404.329;-21.829
1,72753E+12;2024-09-28T16.40.30.956;1.900;-0.792;0.013;0.439;35.854;-395.610;-20.183
1,72753E+12;2024-09-28T16.40.30.966;1.910;-0.706;-0.015;0.500;35.244;-376.159;-18.659
1,72753E+12;2024-09-28T16.40.30.976;1.920;-0.676;-0.017;0.546;34.451;-349.146;-15.854
1,72753E+12;2024-09-28T16.40.30.986;1.930;-0.640;-0.018;0.572;30.244;-313.780;-12.073
1,72753E+12;2024-09-28T16.40.30.996;1.940;-0.589;-0.042;0.591;24.512;-297.561;-0.244
1,72753E+12;2024-09-28T16.40.31.006;1.950;-0.677;-0.063;0.630;23.902;-323.232;8.780
1,72753E+12;2024-09-28T16.40.31.016;1.960;-0.831;-0.045;0.686;26.951;-383.232;8.720
1,72753E+12;2024-09-28T16.40.31.026;1.970;-0.849;-0.006;0.728;31.159;-457.927;4.634
1,72753E+12;2024-09-28T16.40.31.036;1.980;-0.712;0.042;0.750;35.122;-515.488;-2.195
1,72753E+12;2024-09-28T16.40.31.046;1.990;-0.456;0.057;0.767;38.110;-533.110;-7.622
1,72753E+12;2024-09-28T16.40.31.056;2.000;-0.211;0.044;0.781;39.695;-505.671;-7.073
1,72753E+12;2024-09-28T16.40.31.066;2.010;-0.001;0.059;0.798;38.598;-444.634;-1.646
1,72753E+12;2024-09-28T16.40.31.076;2.020;0.162;0.082;0.808;32.012;-355.549;3.659
1,72753E+12;2024-09-28T16.40.31.086;2.030;0.320;0.065;0.826;22.744;-248.537;9.085
1,72753E+12;2024-09-28T16.40.31.096;2.040;0.443;0.053;0.848;13.232;-140.427;13.171
1,72753E+12;2024-09-28T16.40.31.106;2.050;0.463;0.079;0.862;1.707;-47.378;12.683
1,72753E+12;2024-09-28T16.40.31.116;2.060;0.384;0.108;0.857;-11.037;16.768;8.598
1,72753E+12;2024-09-28T16.40.31.126;2.070;0.252;0.100;0.853;-20.427;48.476;2.927
1,72753E+12;2024-09-28T16.40.31.136;2.080;0.080;0.070;0.863;-26.037;59.573;-2.256
1,72753E+12;2024-09-28T16.40.31.146;2.090;-0.036;0.047;0.889;-27.256;63.476;-1.220
1,72753E+12;2024-09-28T16.40.31.156;2.100;-0.008;0.040;0.932;-23.598;66.524;3.354
1,72753E+12;2024-09-28T16.40.31.166;2.110;0.022;0.036;0.955;-17.866;73.232;3.415
1,72753E+12;2024-09-28T16.40.31.176;2.120;0.019;0.022;0.955;-12.195;80.488;1.646
1,72753E+12;2024-09-28T16.40.31.186;2.130;0.001;0.029;0.948;-8.293;86.829;1.220
1,72753E+12;2024-09-28T16.40.31.196;2.140;0.005;0.050;0.952;-5.427;92.134;-1.098
1,72753E+12;2024-09-28T16.40.31.206;2.150;-0.023;0.055;0.961;-3.841;95.122;-3.537
1,72753E+12;2024-09-28T16.40.31.216;2.160;-0.102;0.048;0.966;-4.146;93.780;-1.951
1,72753E+12;2024-09-28T16.40.31.226;2.170;-0.140;0.049;0.978;-4.390;86.402;1.585
1,72753E+12;2024-09-28T16.40.31.236;2.180;-0.158;0.043;0.987;-3.902;69.390;3.293
1,72753E+12;2024-09-28T16.40.31.246;2.190;-0.222;0.031;0.985;-3.415;41.951;1.585
1,72753E+12;2024-09-28T16.40.31.256;2.200;-0.290;0.033;0.975;-4.024;13.720;0.061
1,72753E+12;2024-09-28T16.40.31.266;2.210;-0.250;0.032;0.968;-4.329;-4.268;1.402
1,72753E+12;2024-09-28T16.40.31.276;2.220;-0.163;0.034;0.958;-4.756;-6.463;2.134
1,72753E+12;2024-09-28T16.40.31.286;2.230;-0.105;0.029;0.951;-4.390;1.951;1.951
1,72753E+12;2024-09-28T16.40.31.296;2.240;-0.102;0.014;0.947;-3.049;14.634;2.439
1,72753E+12;2024-09-28T16.40.31.306;2.250;-0.131;0.002;0.945;-1.768;27.561;4.085
1,72753E+12;2024-09-28T16.40.31.316;2.260;-0.141;0.008;0.932;-1.707;37.195;5.366
1,72753E+12;2024-09-28T16.40.31.326;2.270;-0.132;0.021;0.912;-3.720;43.110;2.378
1,72753E+12;2024-09-28T16.40.31.336;2.280;-0.157;0.024;0.916;-5.915;46.646;-2.378
1,72753E+12;2024-09-28T16.40.31.346;2.290;-0.195;0.016;0.918;-7.317;46.768;-3.232
1,72753E+12;2024-09-28T16.40.31.356;2.300;-0.200;0.030;0.927;-8.659;46.585;-4.085
1,72753E+12;2024-09-28T16.40.31.366;2.310;-0.192;0.027;0.945;-9.024;49.756;-4.634
1,72753E+12;2024-09-28T16.40.31.376;2.320;-0.188;0.007;0.951;-6.829;52.622;-2.317
1,72753E+12;2024-09-28T16.40.31.386;2.330;-0.220;0.007;0.946;-4.024;48.476;0.183
1,72753E+12;2024-09-28T16.40.31.396;2.340;-0.283;0.013;0.939;-1.463;34.573;1.646
1,72753E+12;2024-09-28T16.40.31.406;2.350;-0.313;0.016;0.940;1.341;17.439;2.134
1,72753E+12;2024-09-28T16.40.31.416;2.360;-0.285;0.014;0.941;4.451;5.732;1.890
1,72753E+12;2024-09-28T16.40.31.426;2.370;-0.235;0.019;0.934;6.037;3.720;0.793
1,72753E+12;2024-09-28T16.40.31.436;2.380;-0.195;0.033;0.930;5.488;13.841;-0.793
1,72753E+12;2024-09-28T16.40.31.446;2.390;-0.146;0.037;0.926;3.720;38.963;-2.134
1,72753E+12;2024-09-28T16.40.31.456;2.400;-0.070;0.047;0.917;0.427;80.366;-4.512
1,72753E+12;2024-09-28T16.40.31.466;2.410;-0.022;0.044;0.901;-4.939;134.939;-6.402
1,72753E+12;2024-09-28T16.40.31.476;2.420;-0.013;0.053;0.867;-12.561;200.244;-6.646
1,72753E+12;2024-09-28T16.40.31.486;2.430;0.008;0.077;0.815;-23.049;279.451;-7.256
1,72753E+12;2024-09-28T16.40.31.496;2.440;0.061;0.096;0.727;-36.585;390.366;-10.671
1,72753E+12;2024-09-28T16.40.31.506;2.450;0.164;0.057;0.641;-48.232;519.390;-7.866
1,72753E+12;2024-09-28T16.40.31.516;2.460;0.092;0.025;0.514;-58.232;637.561;-0.915
1,72753E+12;2024-09-28T16.40.31.526;2.470;-0.233;0.035;0.343;-68.963;698.902;7.012
1,72753E+12;2024-09-28T16.40.31.536;2.480;-0.670;0.016;0.219;-73.598;697.988;9.756
1,72753E+12;2024-09-28T16.40.31.546;2.490;-0.973;-0.020;0.137;-79.451;657.195;10.732
1,72753E+12;2024-09-28T16.40.31.556;2.500;-1.066;-0.052;0.091;-85.061;598.049;21.402
1,72753E+12;2024-09-28T16.40.31.566;2.510;-1.121;-0.029;0.070;-88.598;528.293;27.500
1,72753E+12;2024-09-28T16.40.31.576;2.520;-1.264;-0.052;0.076;-83.171;435.183;34.329
1,72753E+12;2024-09-28T16.40.31.586;2.530;-1.432;-0.073;0.136;-65.976;329.878;39.024
1,72753E+12;2024-09-28T16.40.31.596;2.540;-1.382;-0.065;0.202;-44.207;237.622;41.646
1,72753E+12;2024-09-28T16.40.31.606;2.550;-1.226;-0.059;0.227;-23.293;169.939;40.366
1,72753E+12;2024-09-28T16.40.31.616;2.560;-1.116;-0.044;0.215;-5.427;129.390;33.354
1,72753E+12;2024-09-28T16.40.31.626;2.570;-1.044;-0.028;0.182;5.305;104.085;25.183
1,72753E+12;2024-09-28T16.40.31.636;2.580;-1.057;-0.008;0.157;11.037;76.768;20.305
1,72753E+12;2024-09-28T16.40.31.646;2.590;-1.129;0.004;0.133;14.207;40.793;16.402
1,72753E+12;2024-09-28T16.40.31.656;2.600;-1.222;0.018;0.078;11.463;7.500;15.366
1,72753E+12;2024-09-28T16.40.31.666;2.610;-1.233;0.050;0.039;2.134;-11.646;17.683
1,72753E+12;2024-09-28T16.40.31.676;2.620;-1.124;0.051;0.056;-7.866;-16.037;17.012
1,72753E+12;2024-09-28T16.40.31.686;2.630;-1.025;0.040;0.099;-13.902;-11.341;10.976
1,72753E+12;2024-09-28T16.40.31.696;2.640;-1.010;0.031;0.108;-16.768;-7.134;5.183
1,72753E+12;2024-09-28T16.40.31.706;2.650;-1.060;0.007;0.100;-16.524;-11.768;2.317
1,72753E+12;2024-09-28T16.40.31.716;2.660;-1.083;-0.014;0.091;-13.354;-21.890;-1.220
1,72753E+12;2024-09-28T16.40.31.726;2.670;-1.066;-0.021;0.086;-8.841;-30.000;-5.244
1,72753E+12;2024-09-28T16.40.31.736;2.680;-1.068;-0.024;0.086;-3.476;-36.829;-6.220
1,72753E+12;2024-09-28T16.40.31.746;2.690;-1.081;-0.031;0.088;1.829;-43.415;-7.378
1,72753E+12;2024-09-28T16.40.31.756;2.700;-1.070;-0.027;0.088;6.220;-49.146;-8.354
1,72753E+12;2024-09-28T16.40.31.766;2.710;-1.062;-0.015;0.085;9.207;-54.939;-8.415
1,72753E+12;2024-09-28T16.40.31.776;2.720;-1.061;-0.005;0.084;10.305;-60.366;-8.598
1,72753E+12;2024-09-28T16.40.31.786;2.730;-1.051;0.004;0.096;9.756;-63.232;-8.415
1,72753E+12;2024-09-28T16.40.31.796;2.740;-1.032;0.008;0.110;7.988;-64.817;-7.622
1,72753E+12;2024-09-28T16.40.31.806;2.750;-1.020;0.010;0.133;6.402;-68.902;-7.195
1,72753E+12;2024-09-28T16.40.31.816;2.760;-1.041;0.007;0.150;5.671;-80.854;-6.890
1,72753E+12;2024-09-28T16.40.31.826;2.770;-1.100;0.007;0.167;5.793;-103.720;-5.427
1,72753E+12;2024-09-28T16.40.31.836;2.780;-1.154;-0.002;0.188;7.866;-145.732;-2.561
1,72753E+12;2024-09-28T16.40.31.846;2.790;-1.216;0.004;0.221;12.378;-203.110;-3.537
1,72753E+12;2024-09-28T16.40.31.856;2.800;-1.233;0.019;0.245;16.646;-270.793;-6.159
1,72753E+12;2024-09-28T16.40.31.866;2.810;-1.236;0.004;0.279;23.902;-357.439;-6.890
1,72753E+12;2024-09-28T16.40.31.876;2.820;-1.287;0.013;0.336;34.390;-440.183;-13.720
1,72753E+12;2024-09-28T16.40.31.886;2.830;-1.172;0.019;0.373;41.646;-504.329;-21.707
1,72753E+12;2024-09-28T16.40.31.896;2.840;-1.037;0.000;0.410;49.573;-561.463;-22.622
1,72753E+12;2024-09-28T16.40.31.906;2.850;-1.017;-0.010;0.466;59.817;-616.037;-25.061
1,72753E+12;2024-09-28T16.40.31.916;2.860;-0.982;-0.043;0.490;71.524;-676.220;-22.988
1,72753E+12;2024-09-28T16.40.31.926;2.870;-0.913;-0.021;0.511;82.073;-719.573;-26.829
1,72753E+12;2024-09-28T16.40.31.936;2.880;-0.722;-0.002;0.526;90.366;-736.402;-27.988
1,72753E+12;2024-09-28T16.40.31.946;2.890;-0.533;-0.026;0.558;99.573;-738.598;-18.537
1,72753E+12;2024-09-28T16.40.31.956;2.900;-0.481;-0.044;0.587;107.683;-747.195;-3.293
1,72753E+12;2024-09-28T16.40.31.966;2.910;-0.466;-0.013;0.544;107.500;-761.524;8.232
1,72753E+12;2024-09-28T16.40.31.976;2.920;-0.280;0.079;0.499;99.756;-757.805;10.976
1,72753E+12;2024-09-28T16.40.31.986;2.930;0.052;0.110;0.499;91.402;-720.183;13.354
1,72753E+12;2024-09-28T16.40.31.996;2.940;0.355;0.122;0.518;81.707;-646.585;17.683
1,72753E+12;2024-09-28T16.40.32.006;2.950;0.608;0.156;0.516;65.061;-543.781;22.317
1,72753E+12;2024-09-28T16.40.32.016;2.960;0.844;0.199;0.522;41.463;-418.720;25.122
1,72753E+12;2024-09-28T16.40.32.026;2.970;1.049;0.230;0.566;15.366;-277.378;25.000
1,72753E+12;2024-09-28T16.40.32.036;2.980;1.185;0.232;0.634;-8.354;-135.427;22.256
1,72753E+12;2024-09-28T16.40.32.046;2.990;1.171;0.206;0.723;-23.659;-14.512;15.488
1,72753E+12;2024-09-28T16.40.32.056;3.000;0.954;0.138;0.779;-28.354;65.610;8.171
1,72753E+12;2024-09-28T16.40.32.066;3.010;0.627;0.072;0.806;-26.890;93.780;6.585
1,72753E+12;2024-09-28T16.40.32.076;3.020;0.391;0.078;0.821;-22.927;77.866;5.732
1,72753E+12;2024-09-28T16.40.32.086;3.030;0.297;0.092;0.850;-16.951;39.268;3.110
1,72753E+12;2024-09-28T16.40.32.096;3.040;0.305;0.093;0.859;-10.610;1.280;-1.524
1,72753E+12;2024-09-28T16.40.32.106;3.050;0.397;0.109;0.853;-5.427;-19.634;-5.915
1,72753E+12;2024-09-28T16.40.32.116;3.060;0.500;0.117;0.857;-2.256;-18.537;-6.890
1,72753E+12;2024-09-28T16.40.32.126;3.070;0.578;0.123;0.840;-2.012;-2.744;-5.915
1,72753E+12;2024-09-28T16.40.32.136;3.080;0.612;0.142;0.820;-5.122;18.659;-6.341
1,72753E+12;2024-09-28T16.40.32.146;3.090;0.617;0.151;0.816;-9.756;43.659;-7.561
1,72753E+12;2024-09-28T16.40.32.156;3.100;0.638;0.141;0.821;-11.951;68.963;-7.439
1,72753E+12;2024-09-28T16.40.32.166;3.110;0.603;0.103;0.839;-9.756;76.829;-3.598
1,72753E+12;2024-09-28T16.40.32.176;3.120;0.412;0.087;0.842;-6.585;51.707;-0.122
1,72753E+12;2024-09-28T16.40.32.186;3.130;0.241;0.112;0.836;-6.341;7.561;-1.098
1,72753E+12;2024-09-28T16.40.32.196;3.140;0.295;0.128;0.859;-5.244;-23.780;-3.293
1,72753E+12;2024-09-28T16.40.32.206;3.150;0.483;0.112;0.889;-1.768;-25.000;-4.390
1,72753E+12;2024-09-28T16.40.32.216;3.160;0.589;0.099;0.897;0.549;-3.476;-4.451
1,72753E+12;2024-09-28T16.40.32.226;3.170;0.594;0.102;0.881;0.671;22.378;-4.146
1,72753E+12;2024-09-28T16.40.32.236;3.180;0.558;0.115;0.851;-2.195;45.549;-5.183
1,72753E+12;2024-09-28T16.40.32.246;3.190;0.552;0.126;0.838;-6.037;65.915;-6.524
1,72753E+12;2024-09-28T16.40.32.256;3.200;0.533;0.105;0.843;-8.110;76.341;-4.451
1,72753E+12;2024-09-28T16.40.32.266;3.210;0.442;0.099;0.861;-8.415;68.598;-2.561
1,72753E+12;2024-09-28T16.40.32.276;3.220;0.357;0.105;0.872;-7.683;46.829;-3.415
1,72753E+12;2024-09-28T16.40.32.286;3.230;0.342;0.107;0.885;-6.524;27.500;-4.390
1,72753E+12;2024-09-28T16.40.32.296;3.240;0.419;0.099;0.899;-4.512;21.159;-4.146
1,72753E+12;2024-09-28T16.40.32.306;3.250;0.476;0.099;0.906;-3.659;29.207;-4.695
1,72753E+12;2024-09-28T16.40.32.316;3.260;0.507;0.111;0.898;-5.183;52.622;-5.854
1,72753E+12;2024-09-28T16.40.32.326;3.270;0.573;0.126;0.867;-11.098;99.695;-7.439
1,72753E+12;2024-09-28T16.40.32.336;3.280;0.715;0.153;0.818;-21.524;177.317;-10.915
1,72753E+12;2024-09-28T16.40.32.346;3.290;0.854;0.154;0.789;-33.415;281.890;-16.220
1,72753E+12;2024-09-28T16.40.32.356;3.300;0.885;0.146;0.768;-46.098;403.537;-19.878
1,72753E+12;2024-09-28T16.40.32.366;3.310;0.835;0.152;0.718;-58.415;532.256;-20.610
1,72753E+12;2024-09-28T16.40.32.376;3.320;0.746;0.158;0.630;-71.220;660.366;-17.805
1,72753E+12;2024-09-28T16.40.32.386;3.330;0.625;0.174;0.502;-85.549;778.049;-13.720
1,72753E+12;2024-09-28T16.40.32.396;3.340;0.444;0.165;0.359;-96.341;866.281;-10.976
1,72753E+12;2024-09-28T16.40.32.406;3.350;0.112;0.112;0.227;-102.256;911.768;-12.866
1,72753E+12;2024-09-28T16.40.32.416;3.360;-0.365;0.043;0.116;-107.683;910.305;-14.695
1,72753E+12;2024-09-28T16.40.32.426;3.370;-0.831;-0.029;0.047;-113.902;862.988;-6.159
1,72753E+12;2024-09-28T16.40.32.436;3.380;-1.143;-0.099;0.072;-115.488;772.012;9.634
1,72753E+12;2024-09-28T16.40.32.446;3.390;-1.328;-0.146;0.147;-109.146;654.512;20.976
1,72753E+12;2024-09-28T16.40.32.456;3.400;-1.379;-0.169;0.220;-99.573;528.110;25.732
1,72753E+12;2024-09-28T16.40.32.466;3.410;-1.396;-0.140;0.318;-85.915;412.195;27.988
1,72753E+12;2024-09-28T16.40.32.476;3.420;-1.371;-0.120;0.396;-65.183;319.695;33.476
1,72753E+12;2024-09-28T16.40.32.486;3.430;-1.226;-0.100;0.411;-40.854;259.634;34.817
1,72753E+12;2024-09-28T16.40.32.496;3.440;-1.060;-0.104;0.332;-22.988;227.744;29.451
1,72753E+12;2024-09-28T16.40.32.506;3.450;-0.988;-0.099;0.225;-11.037;196.768;24.451
1,72753E+12;2024-09-28T16.40.32.516;3.460;-1.101;-0.089;0.196;1.463;152.744;16.280
1,72753E+12;2024-09-28T16.40.32.526;3.470;-1.215;-0.091;0.210;14.268;102.927;7.256
1,72753E+12;2024-09-28T16.40.32.536;3.480;-1.181;-0.079;0.201;23.659;61.098;-0.976
1,72753E+12;2024-09-28T16.40.32.546;3.490;-1.130;-0.053;0.175;26.829;32.927;-5.854
1,72753E+12;2024-09-28T16.40.32.556;3.500;-1.145;-0.029;0.152;25.122;13.232;-6.280
1,72753E+12;2024-09-28T16.40.32.566;3.510;-1.162;-0.006;0.136;21.646;-1.524;-7.256
1,72753E+12;2024-09-28T16.40.32.576;3.520;-1.133;-0.011;0.134;17.317;-11.890;-9.451
1,72753E+12;2024-09-28T16.40.32.586;3.530;-1.111;-0.024;0.135;13.354;-17.073;-11.707
1,72753E+12;2024-09-28T16.40.32.596;3.540;-1.096;-0.033;0.143;10.122;-20.976;-12.012
1,72753E+12;2024-09-28T16.40.32.606;3.550;-1.074;-0.037;0.165;8.841;-27.805;-11.524
1,72753E+12;2024-09-28T16.40.32.616;3.560;-1.074;-0.041;0.184;8.841;-39.207;-10.427
1,72753E+12;2024-09-28T16.40.32.626;3.570;-1.077;-0.040;0.202;10.549;-54.878;-8.415
1,72753E+12;2024-09-28T16.40.32.636;3.580;-1.058;-0.029;0.214;13.049;-71.829;-7.561
1,72753E+12;2024-09-28T16.40.32.646;3.590;-1.029;-0.023;0.219;15.061;-90.366;-7.195
1,72753E+12;2024-09-28T16.40.32.656;3.600;-1.050;-0.021;0.224;16.402;-116.768;-5.610
1,72753E+12;2024-09-28T16.40.32.666;3.610;-1.119;-0.017;0.222;17.805;-158.232;-1.768
1,72753E+12;2024-09-28T16.40.32.676;3.620;-1.200;-0.014;0.222;18.659;-210.610;3.415
1,72753E+12;2024-09-28T16.40.32.686;3.630;-1.198;-0.000;0.253;18.476;-260.732;8.963
1,72753E+12;2024-09-28T16.40.32.696;3.640;-1.063;0.005;0.320;20.305;-297.866;9.878
1,72753E+12;2024-09-28T16.40.32.706;3.650;-0.931;0.017;0.392;21.829;-319.939;5.549
1,72753E+12;2024-09-28T16.40.32.716;3.660;-0.875;0.008;0.462;23.598;-343.171;3.110
1,72753E+12;2024-09-28T16.40.32.726;3.670;-0.917;-0.017;0.524;30.854;-377.927;2.256
1,72753E+12;2024-09-28T16.40.32.736;3.680;-0.975;-0.035;0.554;40.976;-422.622;-0.122
1,72753E+12;2024-09-28T16.40.32.746;3.690;-0.986;-0.054;0.562;52.805;-483.415;2.439
1,72753E+12;2024-09-28T16.40.32.756;3.700;-1.045;-0.081;0.565;67.256;-559.146;7.561
1,72753E+12;2024-09-28T16.40.32.766;3.710;-1.044;-0.046;0.522;77.805;-622.866;5.732
1,72753E+12;2024-09-28T16.40.32.776;3.720;-0.813;-0.008;0.479;80.183;-650.854;6.646
1,72753E+12;2024-09-28T16.40.32.786;3.730;-0.508;0.016;0.520;77.195;-646.037;14.390
1,72753E+12;2024-09-28T16.40.32.796;3.740;-0.282;0.047;0.591;72.988;-628.171;17.927
1,72753E+12;2024-09-28T16.40.32.806;3.750;-0.170;0.062;0.665;66.463;-613.110;15.061
1,72753E+12;2024-09-28T16.40.32.816;3.760;-0.106;0.095;0.708;57.622;-588.537;7.683
1,72753E+12;2024-09-28T16.40.32.826;3.770;0.075;0.091;0.738;50.732;-537.195;4.573
1,72753E+12;2024-09-28T16.40.32.836;3.780;0.315;0.082;0.771;43.963;-454.634;7.012
1,72753E+12;2024-09-28T16.40.32.846;3.790;0.492;0.089;0.787;34.024;-349.695;9.329
1,72753E+12;2024-09-28T16.40.32.856;3.800;0.607;0.102;0.793;19.573;-233.476;11.341
1,72753E+12;2024-09-28T16.40.32.866;3.810;0.685;0.119;0.818;2.805;-118.537;12.012
1,72753E+12;2024-09-28T16.40.32.876;3.820;0.688;0.133;0.859;-11.159;-17.866;10.366
1,72753E+12;2024-09-28T16.40.32.886;3.830;0.578;0.119;0.886;-20.854;55.732;8.293
1,72753E+12;2024-09-28T16.40.32.896;3.840;0.382;0.090;0.912;-26.341;89.512;10.427
1,72753E+12;2024-09-28T16.40.32.906;3.850;0.171;0.081;0.932;-27.500;85.000;12.805
1,72753E+12;2024-09-28T16.40.32.916;3.860;0.061;0.078;0.951;-25.671;58.963;10.915
1,72753E+12;2024-09-28T16.40.32.926;3.870;0.071;0.067;0.982;-20.366;32.439;6.890
1,72753E+12;2024-09-28T16.40.32.936;3.880;0.130;0.054;1.007;-12.439;15.915;2.744
1,72753E+12;2024-09-28T16.40.32.946;3.890;0.170;0.050;1.011;-4.756;11.280;-0.610
1,72753E+12;2024-09-28T16.40.32.956;3.900;0.199;0.051;0.996;0.671;16.829;-2.561
1,72753E+12;2024-09-28T16.40.32.966;3.910;0.236;0.061;0.973;3.171;30.122;-4.329
1,72753E+12;2024-09-28T16.40.32.976;3.920;0.252;0.076;0.938;2.317;46.402;-5.793
1,72753E+12;2024-09-28T16.40.32.986;3.930;0.222;0.086;0.913;-1.402;54.634;-3.720
1,72753E+12;2024-09-28T16.40.32.996;3.940;0.145;0.089;0.913;-5.122;44.939;-1.098
1,72753E+12;2024-09-28T16.40.33.006;3.950;0.070;0.094;0.935;-6.585;22.134;-1.768
1,72753E+12;2024-09-28T16.40.33.016;3.960;0.074;0.083;0.964;-4.756;0.183;-3.902
1,72753E+12;2024-09-28T16.40.33.026;3.970;0.121;0.068;0.985;-1.280;-8.598;-4.878
1,72753E+12;2024-09-28T16.40.33.036;3.980;0.182;0.062;0.986;1.524;-2.561;-3.720
1,72753E+12;2024-09-28T16.40.33.046;3.990;0.229;0.073;0.972;2.744;11.524;-2.927
1,72753E+12;2024-09-28T16.40.33.056;4.000;0.238;0.089;0.960;2.073;28.963;-4.146
1,72753E+12;2024-09-28T16.40.33.066;4.010;0.229;0.086;0.956;0.488;46.585;-4.024
1,72753E+12;2024-09-28T16.40.33.076;4.020;0.202;0.081;0.943;-1.646;57.195;-1.707
1,72753E+12;2024-09-28T16.40.33.086;4.030;0.145;0.086;0.944;-3.963;55.183;0.061
1,72753E+12;2024-09-28T16.40.33.096;4.040;0.095;0.079;0.960;-5.122;43.415;0.366
1,72753E+12;2024-09-28T16.40.33.106;4.050;0.082;0.068;0.983;-3.537;29.573;-0.366
1,72753E+12;2024-09-28T16.40.33.116;4.060;0.089;0.061;1.001;-0.915;18.598;-0.488
1,72753E+12;2024-09-28T16.40.33.126;4.070;0.102;0.061;1.003;0.915;12.378;-1.463
1,72753E+12;2024-09-28T16.40.33.136;4.080;0.115;0.069;0.998;1.402;13.293;-3.171
1,72753E+12;2024-09-28T16.40.33.146;4.090;0.141;0.069;0.992;0.976;22.317;-4.024
1,72753E+12;2024-09-28T16.40.33.156;4.100;0.163;0.071;0.987;0.000;37.073;-4.085
1,72753E+12;2024-09-28T16.40.33.166;4.110;0.158;0.074;0.981;-1.402;49.268;-3.049
1,72753E+12;2024-09-28T16.40.33.176;4.120;0.113;0.075;0.977;-2.805;50.488;-1.402
1,72753E+12;2024-09-28T16.40.33.186;4.130;0.043;0.071;0.984;-3.171;36.890;-0.488
1,72753E+12;2024-09-28T16.40.33.196;4.140;-0.008;0.070;1.002;;;
1,72753E+12;2024-09-28T16.40.33.206;4.150;0.005;0.073;1.017;;;
