epoc (ms);timestamp (+0300);elapsed (s);acc_x;acc_y;acc_z;gyr_x;gyr_y;gyr_z
1,72753E+12;2024-09-28T16.41.11.686;0.000;-0.580;-0.009;0.633;48.476;-435.610;-9.878
1,72753E+12;2024-09-28T16.41.11.696;0.010;-0.462;-0.002;0.668;47.927;-430.427;-9.451
1,72753E+12;2024-09-28T16.41.11.706;0.020;-0.352;0.019;0.688;44.756;-404.512;-7.134
1,72753E+12;2024-09-28T16.41.11.716;0.030;-0.267;0.031;0.723;38.293;-368.720;-5.610
1,72753E+12;2024-09-28T16.41.11.726;0.040;-0.232;0.032;0.763;31.280;-336.890;-3.171
1,72753E+12;2024-09-28T16.41.11.736;0.050;-0.202;0.017;0.809;26.159;-310.732;-0.122
1,72753E+12;2024-09-28T16.41.11.746;0.060;-0.156;0.027;0.836;22.805;-283.659;-0.488
1,72753E+12;2024-09-28T16.41.11.756;0.070;-0.086;0.020;0.862;23.110;-258.415;0.244
1,72753E+12;2024-09-28T16.41.11.766;0.080;-0.100;-0.006;0.894;26.768;-251.646;4.390
1,72753E+12;2024-09-28T16.41.11.776;0.090;-0.200;0.007;0.906;29.573;-267.195;4.085
1,72753E+12;2024-09-28T16.41.11.786;0.100;-0.208;0.040;0.895;30.793;-282.561;-1.646
1,72753E+12;2024-09-28T16.41.11.796;0.110;-0.035;0.052;0.891;30.915;-272.683;-5.549
1,72753E+12;2024-09-28T16.41.11.806;0.120;0.159;0.062;0.898;29.695;-236.646;-5.915
1,72753E+12;2024-09-28T16.41.11.816;0.130;0.240;0.076;0.898;25.183;-188.415;-3.780
1,72753E+12;2024-09-28T16.41.11.826;0.140;0.268;0.095;0.879;16.524;-136.524;-0.305
1,72753E+12;2024-09-28T16.41.11.836;0.150;0.317;0.109;0.878;5.915;-85.305;2.256
1,72753E+12;2024-09-28T16.41.11.846;0.160;0.361;0.121;0.902;-2.805;-37.927;2.500
1,72753E+12;2024-09-28T16.41.11.856;0.170;0.351;0.112;0.933;-7.622;1.341;2.805
1,72753E+12;2024-09-28T16.41.11.866;0.180;0.282;0.080;0.948;-8.415;22.988;5.427
1,72753E+12;2024-09-28T16.41.11.876;0.190;0.165;0.079;0.956;-8.537;21.646;8.232
1,72753E+12;2024-09-28T16.41.11.886;0.200;0.078;0.086;0.974;-6.829;2.134;7.561
1,72753E+12;2024-09-28T16.41.11.896;0.210;0.054;0.072;0.992;-4.085;-16.220;4.817
1,72753E+12;2024-09-28T16.41.11.906;0.220;0.123;0.064;1.008;-0.183;-21.463;2.744
1,72753E+12;2024-09-28T16.41.11.916;0.230;0.178;0.066;0.997;3.293;-16.037;0.854
1,72753E+12;2024-09-28T16.41.11.926;0.240;0.167;0.072;0.966;2.927;-6.829;-0.366
1,72753E+12;2024-09-28T16.41.11.936;0.250;0.176;0.083;0.939;-0.061;4.939;-0.915
1,72753E+12;2024-09-28T16.41.11.946;0.260;0.194;0.085;0.944;-2.256;15.000;-0.183
1,72753E+12;2024-09-28T16.41.11.956;0.270;0.165;0.074;0.957;-2.988;15.915;0.244
1,72753E+12;2024-09-28T16.41.11.966;0.280;0.115;0.063;0.973;-1.951;7.256;0.488
1,72753E+12;2024-09-28T16.41.11.976;0.290;0.096;0.062;0.978;0.183;-5.793;0.427
1,72753E+12;2024-09-28T16.41.11.986;0.300;0.116;0.067;0.980;3.049;-13.293;-0.671
1,72753E+12;2024-09-28T16.41.11.996;0.310;0.159;0.068;0.983;5.671;-11.402;0.061
1,72753E+12;2024-09-28T16.41.12.006;0.320;0.194;0.079;0.972;6.463;-2.561;0.915
1,72753E+12;2024-09-28T16.41.12.016;0.330;0.203;0.084;0.962;4.939;9.512;1.402
1,72753E+12;2024-09-28T16.41.12.026;0.340;0.201;0.088;0.960;2.378;21.646;1.402
1,72753E+12;2024-09-28T16.41.12.036;0.350;0.193;0.087;0.959;-0.122;32.866;1.646
1,72753E+12;2024-09-28T16.41.12.046;0.360;0.180;0.076;0.956;-2.622;41.341;2.744
1,72753E+12;2024-09-28T16.41.12.056;0.370;0.162;0.080;0.964;-4.207;44.146;3.049
1,72753E+12;2024-09-28T16.41.12.066;0.380;0.134;0.076;0.972;-4.817;42.195;2.622
1,72753E+12;2024-09-28T16.41.12.076;0.390;0.128;0.072;0.976;-4.146;40.854;2.195
1,72753E+12;2024-09-28T16.41.12.086;0.400;0.149;0.076;0.978;-3.171;44.085;2.927
1,72753E+12;2024-09-28T16.41.12.096;0.410;0.179;0.087;0.960;-4.939;59.207;2.439
1,72753E+12;2024-09-28T16.41.12.106;0.420;0.256;0.105;0.929;-11.341;102.317;1.159
1,72753E+12;2024-09-28T16.41.12.116;0.430;0.409;0.131;0.877;-23.476;191.159;1.829
1,72753E+12;2024-09-28T16.41.12.126;0.440;0.599;0.150;0.817;-38.841;322.073;6.159
1,72753E+12;2024-09-28T16.41.12.136;0.450;0.652;0.154;0.741;-57.988;470.488;15.244
1,72753E+12;2024-09-28T16.41.12.146;0.460;0.521;0.157;0.649;-77.622;604.146;25.610
1,72753E+12;2024-09-28T16.41.12.156;0.470;0.249;0.136;0.553;-93.598;707.195;33.171
1,72753E+12;2024-09-28T16.41.12.166;0.480;-0.029;0.117;0.455;-107.805;786.890;39.207
1,72753E+12;2024-09-28T16.41.12.176;0.490;-0.199;0.079;0.333;-118.841;856.951;44.085
1,72753E+12;2024-09-28T16.41.12.186;0.500;-0.335;0.052;0.196;-129.573;925.427;46.646
1,72753E+12;2024-09-28T16.41.12.196;0.510;-0.509;-0.020;0.027;-141.829;950.366;56.402
1,72753E+12;2024-09-28T16.41.12.206;0.520;-1.026;-0.050;-0.162;-155.305;880.000;65.732
1,72753E+12;2024-09-28T16.41.12.216;0.530;-1.666;-0.068;-0.165;-157.683;712.866;75.366
1,72753E+12;2024-09-28T16.41.12.226;0.540;-1.949;-0.174;0.044;-130.915;495.366;85.061
1,72753E+12;2024-09-28T16.41.12.236;0.550;-1.811;-0.180;0.214;-86.463;288.049;81.220
1,72753E+12;2024-09-28T16.41.12.246;0.560;-1.516;-0.162;0.286;-35.061;144.085;59.756
1,72753E+12;2024-09-28T16.41.12.256;0.570;-1.225;-0.172;0.271;8.841;87.683;32.988
1,72753E+12;2024-09-28T16.41.12.266;0.580;-1.046;-0.139;0.194;33.659;89.817;16.098
1,72753E+12;2024-09-28T16.41.12.276;0.590;-1.024;-0.070;0.136;47.012;85.671;9.329
1,72753E+12;2024-09-28T16.41.12.286;0.600;-1.154;-0.047;0.087;54.390;43.598;0.061
1,72753E+12;2024-09-28T16.41.12.296;0.610;-1.323;-0.013;0.006;48.537;-9.390;-5.488
1,72753E+12;2024-09-28T16.41.12.306;0.620;-1.326;0.039;-0.055;30.366;-34.512;-2.927
1,72753E+12;2024-09-28T16.41.12.316;0.630;-1.149;0.081;-0.027;9.268;-22.805;0.305
1,72753E+12;2024-09-28T16.41.12.326;0.640;-0.980;0.099;0.077;-5.061;3.720;-0.061
1,72753E+12;2024-09-28T16.41.12.336;0.650;-0.958;0.064;0.149;-9.085;12.805;-3.171
1,72753E+12;2024-09-28T16.41.12.346;0.660;-1.079;0.044;0.155;-7.927;-2.439;-8.902
1,72753E+12;2024-09-28T16.41.12.356;0.670;-1.103;0.023;0.161;-4.451;-25.732;-13.963
1,72753E+12;2024-09-28T16.41.12.366;0.680;-1.021;0.001;0.169;0.915;-40.244;-18.049
1,72753E+12;2024-09-28T16.41.12.376;0.690;-0.959;-0.014;0.161;5.854;-44.390;-19.085
1,72753E+12;2024-09-28T16.41.12.386;0.700;-0.939;-0.017;0.137;9.512;-43.780;-18.659
1,72753E+12;2024-09-28T16.41.12.396;0.710;-0.928;-0.023;0.114;10.122;-40.183;-16.524
1,72753E+12;2024-09-28T16.41.12.406;0.720;-0.919;-0.024;0.117;9.451;-36.098;-12.866
1,72753E+12;2024-09-28T16.41.12.416;0.730;-0.926;-0.017;0.121;8.415;-34.451;-10.061
1,72753E+12;2024-09-28T16.41.12.426;0.740;-0.935;-0.012;0.123;6.646;-33.049;-7.622
1,72753E+12;2024-09-28T16.41.12.436;0.750;-0.934;-0.009;0.140;4.451;-30.488;-5.671
1,72753E+12;2024-09-28T16.41.12.446;0.760;-0.942;-0.000;0.160;2.134;-30.305;-3.963
1,72753E+12;2024-09-28T16.41.12.456;0.770;-0.953;-0.011;0.186;2.073;-33.354;-3.902
1,72753E+12;2024-09-28T16.41.12.466;0.780;-0.972;-0.015;0.209;3.902;-39.451;-4.451
1,72753E+12;2024-09-28T16.41.12.476;0.790;-0.997;-0.020;0.218;6.890;-52.073;-5.122
1,72753E+12;2024-09-28T16.41.12.486;0.800;-1.023;-0.024;0.228;10.671;-72.439;-6.951
1,72753E+12;2024-09-28T16.41.12.496;0.810;-1.068;-0.022;0.237;15.427;-103.354;-8.354
1,72753E+12;2024-09-28T16.41.12.506;0.820;-1.128;-0.022;0.245;20.610;-147.927;-9.390
1,72753E+12;2024-09-28T16.41.12.516;0.830;-1.187;-0.025;0.278;28.049;-207.622;-11.402
1,72753E+12;2024-09-28T16.41.12.526;0.840;-1.224;-0.040;0.320;39.817;-284.634;-15.244
1,72753E+12;2024-09-28T16.41.12.536;0.850;-1.270;-0.050;0.362;52.988;-368.598;-22.744
1,72753E+12;2024-09-28T16.41.12.546;0.860;-1.234;-0.034;0.381;60.854;-438.902;-30.183
1,72753E+12;2024-09-28T16.41.12.556;0.870;-1.087;-0.024;0.413;67.134;-484.634;-33.780
1,72753E+12;2024-09-28T16.41.12.566;0.880;-0.954;-0.032;0.464;72.866;-505.305;-36.524
1,72753E+12;2024-09-28T16.41.12.576;0.890;-0.830;-0.021;0.511;74.268;-500.183;-37.683
1,72753E+12;2024-09-28T16.41.12.586;0.900;-0.661;-0.021;0.564;73.049;-482.012;-32.866
1,72753E+12;2024-09-28T16.41.12.596;0.910;-0.614;-0.039;0.610;73.963;-469.634;-25.305
1,72753E+12;2024-09-28T16.41.12.606;0.920;-0.693;-0.046;0.638;74.573;-476.768;-15.427
1,72753E+12;2024-09-28T16.41.12.616;0.930;-0.722;-0.017;0.638;70.976;-498.598;-8.720
1,72753E+12;2024-09-28T16.41.12.626;0.940;-0.617;0.012;0.655;66.524;-517.866;-5.976
1,72753E+12;2024-09-28T16.41.12.636;0.950;-0.446;0.027;0.697;64.268;-521.037;-5.000
1,72753E+12;2024-09-28T16.41.12.646;0.960;-0.283;0.036;0.740;62.866;-503.476;-3.902
1,72753E+12;2024-09-28T16.41.12.656;0.970;-0.130;0.049;0.762;59.878;-469.329;-1.707
1,72753E+12;2024-09-28T16.41.12.666;0.980;0.011;0.075;0.783;55.366;-422.927;-1.524
1,72753E+12;2024-09-28T16.41.12.676;0.990;0.119;0.067;0.804;51.585;-377.561;-0.610
1,72753E+12;2024-09-28T16.41.12.686;1.000;0.115;0.064;0.811;46.768;-341.524;1.341
1,72753E+12;2024-09-28T16.41.12.696;1.010;0.120;0.103;0.798;39.939;-308.293;0.854
1,72753E+12;2024-09-28T16.41.12.706;1.020;0.248;0.111;0.799;33.720;-267.927;-0.610
1,72753E+12;2024-09-28T16.41.12.716;1.030;0.356;0.118;0.818;25.549;-219.817;0.061
1,72753E+12;2024-09-28T16.41.12.726;1.040;0.416;0.133;0.845;17.012;-174.695;0.854
1,72753E+12;2024-09-28T16.41.12.736;1.050;0.419;0.150;0.863;8.537;-135.915;-0.732
1,72753E+12;2024-09-28T16.41.12.746;1.060;0.418;0.146;0.886;1.890;-102.378;-1.585
1,72753E+12;2024-09-28T16.41.12.756;1.070;0.424;0.132;0.908;-1.524;-75.122;-1.524
1,72753E+12;2024-09-28T16.41.12.766;1.080;0.388;0.119;0.929;-3.049;-53.902;-0.976
1,72753E+12;2024-09-28T16.41.12.776;1.090;0.374;0.113;0.935;-3.598;-39.329;-0.427
1,72753E+12;2024-09-28T16.41.12.786;1.100;0.380;0.116;0.936;-2.927;-27.561;-2.988
1,72753E+12;2024-09-28T16.41.12.796;1.110;0.365;0.109;0.919;-2.622;-17.256;-4.634
1,72753E+12;2024-09-28T16.41.12.806;1.120;0.339;0.109;0.908;-3.415;-13.171;-2.927
1,72753E+12;2024-09-28T16.41.12.816;1.130;0.303;0.110;0.906;-4.939;-17.561;-1.890
1,72753E+12;2024-09-28T16.41.12.826;1.140;0.282;0.121;0.912;-6.890;-24.207;-3.171
1,72753E+12;2024-09-28T16.41.12.836;1.150;0.331;0.119;0.929;-7.317;-24.634;-4.207
1,72753E+12;2024-09-28T16.41.12.846;1.160;0.385;0.112;0.933;-6.768;-15.427;-4.756
1,72753E+12;2024-09-28T16.41.12.856;1.170;0.420;0.110;0.924;-6.524;2.866;-4.451
1,72753E+12;2024-09-28T16.41.12.866;1.180;0.463;0.114;0.918;-6.463;26.402;-3.780
1,72753E+12;2024-09-28T16.41.12.876;1.190;0.482;0.117;0.909;-5.854;48.841;-3.841
1,72753E+12;2024-09-28T16.41.12.886;1.200;0.419;0.101;0.908;-4.756;58.171;-1.707
1,72753E+12;2024-09-28T16.41.12.896;1.210;0.297;0.095;0.913;-4.085;46.951;0.122
1,72753E+12;2024-09-28T16.41.12.906;1.220;0.219;0.106;0.926;-3.293;21.646;-1.341
1,72753E+12;2024-09-28T16.41.12.916;1.230;0.222;0.109;0.943;-2.317;-0.183;-3.598
1,72753E+12;2024-09-28T16.41.12.926;1.240;0.291;0.104;0.963;-1.037;-7.744;-4.390
1,72753E+12;2024-09-28T16.41.12.936;1.250;0.349;0.099;0.957;-0.671;-2.134;-3.963
1,72753E+12;2024-09-28T16.41.12.946;1.260;0.378;0.100;0.944;-2.561;10.305;-3.476
1,72753E+12;2024-09-28T16.41.12.956;1.270;0.402;0.111;0.928;-6.341;29.756;-4.451
1,72753E+12;2024-09-28T16.41.12.966;1.280;0.445;0.113;0.917;-10.915;60.610;-4.939
1,72753E+12;2024-09-28T16.41.12.976;1.290;0.505;0.110;0.923;-15.366;102.805;-4.207
1,72753E+12;2024-09-28T16.41.12.986;1.300;0.529;0.115;0.917;-19.512;151.890;-2.988
1,72753E+12;2024-09-28T16.41.12.996;1.310;0.514;0.118;0.904;-25.671;205.671;-0.366
1,72753E+12;2024-09-28T16.41.13.006;1.320;0.521;0.134;0.904;-33.415;263.476;2.012
1,72753E+12;2024-09-28T16.41.13.016;1.330;0.503;0.138;0.901;-41.037;322.134;3.537
1,72753E+12;2024-09-28T16.41.13.026;1.340;0.420;0.137;0.873;-51.280;384.512;4.817
1,72753E+12;2024-09-28T16.41.13.036;1.350;0.368;0.134;0.832;-64.817;460.549;6.524
1,72753E+12;2024-09-28T16.41.13.046;1.360;0.400;0.131;0.765;-78.902;561.220;6.220
1,72753E+12;2024-09-28T16.41.13.056;1.370;0.415;0.106;0.659;-91.524;683.720;5.976
1,72753E+12;2024-09-28T16.41.13.066;1.380;0.299;0.059;0.475;-102.317;804.024;7.927
1,72753E+12;2024-09-28T16.41.13.076;1.390;0.024;0.011;0.240;-112.561;886.707;7.927
1,72753E+12;2024-09-28T16.41.13.086;1.400;-0.402;-0.007;0.046;-124.390;910.427;2.256
1,72753E+12;2024-09-28T16.41.13.096;1.410;-0.864;-0.084;-0.032;-134.024;855.976;3.293
1,72753E+12;2024-09-28T16.41.13.106;1.420;-1.351;-0.174;0.011;-136.890;714.329;10.183
1,72753E+12;2024-09-28T16.41.13.116;1.430;-1.752;-0.208;0.168;-129.634;520.000;18.293
1,72753E+12;2024-09-28T16.41.13.126;1.440;-1.773;-0.202;0.366;-109.146;338.659;28.720
1,72753E+12;2024-09-28T16.41.13.136;1.450;-1.415;-0.152;0.453;-81.951;216.280;34.695
1,72753E+12;2024-09-28T16.41.13.146;1.460;-1.018;-0.119;0.465;-54.451;175.427;25.488
1,72753E+12;2024-09-28T16.41.13.156;1.470;-0.709;-0.113;0.422;-33.720;194.817;16.098
1,72753E+12;2024-09-28T16.41.13.166;1.480;-0.683;-0.112;0.320;-20.854;223.171;14.085
1,72753E+12;2024-09-28T16.41.13.176;1.490;-0.918;-0.110;0.216;-12.988;208.720;16.463
1,72753E+12;2024-09-28T16.41.13.186;1.500;-1.183;-0.100;0.184;-3.780;143.293;15.000
1,72753E+12;2024-09-28T16.41.13.196;1.510;-1.270;-0.099;0.214;4.573;64.817;7.317
1,72753E+12;2024-09-28T16.41.13.206;1.520;-1.202;-0.075;0.230;10.366;14.756;3.780
1,72753E+12;2024-09-28T16.41.13.216;1.530;-1.064;-0.032;0.202;10.366;12.622;6.829
1,72753E+12;2024-09-28T16.41.13.226;1.540;-0.897;0.003;0.168;2.439;40.915;11.463
1,72753E+12;2024-09-28T16.41.13.236;1.550;-0.884;0.021;0.156;-8.537;64.512;14.512
1,72753E+12;2024-09-28T16.41.13.246;1.560;-0.986;0.013;0.156;-16.707;62.256;13.841
1,72753E+12;2024-09-28T16.41.13.256;1.570;-1.109;-0.015;0.169;-18.598;39.329;9.573
1,72753E+12;2024-09-28T16.41.13.266;1.580;-1.147;-0.042;0.185;-16.280;11.890;5.244
1,72753E+12;2024-09-28T16.41.13.276;1.590;-1.119;-0.050;0.201;-11.524;-9.817;1.646
1,72753E+12;2024-09-28T16.41.13.286;1.600;-1.084;-0.051;0.203;-5.122;-21.463;-1.951
1,72753E+12;2024-09-28T16.41.13.296;1.610;-1.034;-0.053;0.179;1.280;-23.354;-5.122
1,72753E+12;2024-09-28T16.41.13.306;1.620;-1.015;-0.056;0.148;4.756;-20.549;-5.610
1,72753E+12;2024-09-28T16.41.13.316;1.630;-1.024;-0.056;0.127;6.220;-19.268;-4.451
1,72753E+12;2024-09-28T16.41.13.326;1.640;-1.030;-0.052;0.117;6.159;-21.037;-4.085
1,72753E+12;2024-09-28T16.41.13.336;1.650;-1.035;-0.048;0.118;4.817;-23.902;-3.963
1,72753E+12;2024-09-28T16.41.13.346;1.660;-1.024;-0.044;0.116;2.256;-23.171;-4.817
1,72753E+12;2024-09-28T16.41.13.356;1.670;-1.013;-0.040;0.120;-0.671;-19.634;-4.451
1,72753E+12;2024-09-28T16.41.13.366;1.680;-1.000;-0.040;0.126;-1.829;-17.134;-4.634
1,72753E+12;2024-09-28T16.41.13.376;1.690;-0.989;-0.041;0.134;-2.378;-16.524;-5.915
1,72753E+12;2024-09-28T16.41.13.386;1.700;-0.991;-0.044;0.164;-0.671;-21.524;-5.183
1,72753E+12;2024-09-28T16.41.13.396;1.710;-1.013;-0.049;0.188;3.415;-34.207;-5.488
1,72753E+12;2024-09-28T16.41.13.406;1.720;-1.030;-0.051;0.200;8.293;-51.402;-6.341
1,72753E+12;2024-09-28T16.41.13.416;1.730;-1.037;-0.044;0.218;12.988;-73.415;-6.280
1,72753E+12;2024-09-28T16.41.13.426;1.740;-1.072;-0.045;0.229;17.195;-103.902;-6.524
1,72753E+12;2024-09-28T16.41.13.436;1.750;-1.106;-0.043;0.239;21.463;-141.829;-8.354
1,72753E+12;2024-09-28T16.41.13.446;1.760;-1.096;-0.043;0.267;26.280;-183.476;-12.378
1,72753E+12;2024-09-28T16.41.13.456;1.770;-1.088;-0.050;0.303;32.012;-224.512;-17.622
1,72753E+12;2024-09-28T16.41.13.466;1.780;-1.082;-0.054;0.333;38.598;-263.902;-21.951
1,72753E+12;2024-09-28T16.41.13.476;1.790;-1.071;-0.059;0.363;44.512;-303.171;-23.963
1,72753E+12;2024-09-28T16.41.13.486;1.800;-1.054;-0.069;0.399;49.207;-344.146;-24.878
1,72753E+12;2024-09-28T16.41.13.496;1.810;-1.016;-0.063;0.443;50.854;-379.146;-27.866
1,72753E+12;2024-09-28T16.41.13.506;1.820;-0.924;-0.055;0.484;54.451;-404.817;-27.805
1,72753E+12;2024-09-28T16.41.13.516;1.830;-0.879;-0.074;0.538;60.732;-430.366;-23.415
1,72753E+12;2024-09-28T16.41.13.526;1.840;-0.861;-0.055;0.579;66.585;-452.805;-23.720
1,72753E+12;2024-09-28T16.41.13.536;1.850;-0.749;-0.043;0.585;69.024;-464.756;-24.695
1,72753E+12;2024-09-28T16.41.13.546;1.860;-0.644;-0.033;0.600;68.354;-461.463;-25.610
1,72753E+12;2024-09-28T16.41.13.556;1.870;-0.573;-0.038;0.615;63.720;-441.829;-23.171
1,72753E+12;2024-09-28T16.41.13.566;1.880;-0.457;-0.021;0.631;54.085;-407.256;-16.951
1,72753E+12;2024-09-28T16.41.13.576;1.890;-0.281;0.004;0.671;42.561;-359.878;-12.866
1,72753E+12;2024-09-28T16.41.13.586;1.900;-0.147;0.007;0.729;31.951;-308.110;-11.890
1,72753E+12;2024-09-28T16.41.13.596;1.910;-0.135;-0.013;0.799;25.366;-266.951;-8.963
1,72753E+12;2024-09-28T16.41.13.606;1.920;-0.200;-0.018;0.849;22.256;-247.378;-4.634
1,72753E+12;2024-09-28T16.41.13.616;1.930;-0.237;-0.022;0.885;23.537;-249.817;-2.683
1,72753E+12;2024-09-28T16.41.13.626;1.940;-0.262;-0.048;0.927;30.122;-274.146;-2.866
1,72753E+12;2024-09-28T16.41.13.636;1.950;-0.312;-0.039;0.939;35.915;-308.841;-7.012
1,72753E+12;2024-09-28T16.41.13.646;1.960;-0.249;-0.010;0.898;37.866;-327.439;-12.805
1,72753E+12;2024-09-28T16.41.13.656;1.970;-0.035;0.013;0.876;36.951;-310.244;-14.695
1,72753E+12;2024-09-28T16.41.13.666;1.980;0.178;0.026;0.887;35.244;-264.390;-12.805
1,72753E+12;2024-09-28T16.41.13.676;1.990;0.285;0.042;0.894;32.256;-206.585;-10.183
1,72753E+12;2024-09-28T16.41.13.686;2.000;0.323;0.064;0.881;25.366;-147.439;-7.256
1,72753E+12;2024-09-28T16.41.13.696;2.010;0.362;0.093;0.871;15.488;-91.768;-4.024
1,72753E+12;2024-09-28T16.41.13.706;2.020;0.377;0.096;0.880;7.683;-48.171;-1.341
1,72753E+12;2024-09-28T16.41.13.716;2.030;0.282;0.076;0.923;3.720;-32.622;2.866
1,72753E+12;2024-09-28T16.41.13.726;2.040;0.125;0.060;0.963;3.354;-49.878;3.841
1,72753E+12;2024-09-28T16.41.13.736;2.050;0.031;0.050;0.994;5.854;-81.585;1.098
1,72753E+12;2024-09-28T16.41.13.746;2.060;0.062;0.047;1.007;9.939;-103.841;-1.463
1,72753E+12;2024-09-28T16.41.13.756;2.070;0.168;0.045;0.998;13.171;-106.463;-2.683
1,72753E+12;2024-09-28T16.41.13.766;2.080;0.255;0.055;0.971;14.085;-90.549;-3.902
1,72753E+12;2024-09-28T16.41.13.776;2.090;0.308;0.067;0.941;11.707;-64.878;-3.476
1,72753E+12;2024-09-28T16.41.13.786;2.100;0.335;0.077;0.920;6.707;-37.683;-2.500
1,72753E+12;2024-09-28T16.41.13.796;2.110;0.348;0.088;0.919;0.976;-10.854;-2.378
1,72753E+12;2024-09-28T16.41.13.806;2.120;0.359;0.079;0.938;-2.378;8.232;-0.793
1,72753E+12;2024-09-28T16.41.13.816;2.130;0.287;0.058;0.964;-2.927;6.768;1.280
1,72753E+12;2024-09-28T16.41.13.826;2.140;0.172;0.055;0.981;-1.524;-13.293;0.488
1,72753E+12;2024-09-28T16.41.13.836;2.150;0.145;0.046;0.989;1.220;-35.610;-1.524
1,72753E+12;2024-09-28T16.41.13.846;2.160;0.197;0.042;0.988;4.146;-46.159;-3.293
1,72753E+12;2024-09-28T16.41.13.856;2.170;0.253;0.040;0.977;5.732;-42.988;-3.659
1,72753E+12;2024-09-28T16.41.13.866;2.180;0.310;0.058;0.951;4.817;-29.390;-4.634
1,72753E+12;2024-09-28T16.41.13.876;2.190;0.358;0.069;0.932;1.829;-8.902;-7.256
1,72753E+12;2024-09-28T16.41.13.886;2.200;0.359;0.063;0.919;-2.195;14.207;-6.829
1,72753E+12;2024-09-28T16.41.13.896;2.210;0.343;0.058;0.917;-5.610;31.037;-3.476
1,72753E+12;2024-09-28T16.41.13.906;2.220;0.304;0.053;0.932;-7.134;34.573;-1.463
1,72753E+12;2024-09-28T16.41.13.916;2.230;0.249;0.045;0.965;-5.671;21.646;-1.220
1,72753E+12;2024-09-28T16.41.13.926;2.240;0.185;0.033;1.000;-2.256;-0.244;-2.500
1,72753E+12;2024-09-28T16.41.13.936;2.250;0.191;0.033;1.003;0.366;-17.317;-4.817
1,72753E+12;2024-09-28T16.41.13.946;2.260;0.261;0.049;0.993;0.793;-20.427;-6.707
1,72753E+12;2024-09-28T16.41.13.956;2.270;0.302;0.054;0.984;-0.793;-12.256;-6.159
1,72753E+12;2024-09-28T16.41.13.966;2.280;0.317;0.068;0.964;-5.305;4.146;-5.244
1,72753E+12;2024-09-28T16.41.13.976;2.290;0.380;0.097;0.920;-14.756;42.012;-6.829
1,72753E+12;2024-09-28T16.41.13.986;2.300;0.535;0.112;0.893;-25.122;112.866;-7.195
1,72753E+12;2024-09-28T16.41.13.996;2.310;0.660;0.079;0.882;-33.841;200.732;-2.622
1,72753E+12;2024-09-28T16.41.14.006;2.320;0.626;0.110;0.834;-46.341;292.439;-0.793
1,72753E+12;2024-09-28T16.41.14.016;2.330;0.578;0.127;0.793;-59.634;385.732;0.488
1,72753E+12;2024-09-28T16.41.14.026;2.340;0.519;0.120;0.756;-72.500;483.659;5.305
1,72753E+12;2024-09-28T16.41.14.036;2.350;0.428;0.113;0.686;-86.829;586.524;11.524
1,72753E+12;2024-09-28T16.41.14.046;2.360;0.320;0.089;0.594;-100.610;686.768;18.598
1,72753E+12;2024-09-28T16.41.14.056;2.370;0.146;0.053;0.488;-112.317;771.281;24.817
1,72753E+12;2024-09-28T16.41.14.066;2.380;-0.130;0.012;0.381;-120.488;826.037;29.756
1,72753E+12;2024-09-28T16.41.14.076;2.390;-0.458;-0.035;0.284;-123.598;843.293;34.329
1,72753E+12;2024-09-28T16.41.14.086;2.400;-0.742;-0.076;0.237;-121.829;822.805;39.695
1,72753E+12;2024-09-28T16.41.14.096;2.410;-0.948;-0.115;0.188;-117.622;759.146;46.524
1,72753E+12;2024-09-28T16.41.14.106;2.420;-1.202;-0.152;0.176;-110.122;642.073;51.707
1,72753E+12;2024-09-28T16.41.14.116;2.430;-1.464;-0.149;0.259;-93.841;497.439;50.732
1,72753E+12;2024-09-28T16.41.14.126;2.440;-1.403;-0.177;0.333;-70.000;361.098;48.110
1,72753E+12;2024-09-28T16.41.14.136;2.450;-1.236;-0.168;0.359;-42.134;264.207;38.354
1,72753E+12;2024-09-28T16.41.14.146;2.460;-1.097;-0.155;0.310;-17.012;213.049;28.780
1,72753E+12;2024-09-28T16.41.14.156;2.470;-1.037;-0.133;0.222;-3.110;190.427;25.549
1,72753E+12;2024-09-28T16.41.14.166;2.480;-1.056;-0.109;0.157;3.171;159.390;25.244
1,72753E+12;2024-09-28T16.41.14.176;2.490;-1.192;-0.093;0.158;7.683;109.451;19.512
1,72753E+12;2024-09-28T16.41.14.186;2.500;-1.278;-0.078;0.166;8.963;60.488;12.378
1,72753E+12;2024-09-28T16.41.14.196;2.510;-1.193;-0.059;0.151;4.329;34.512;9.024
1,72753E+12;2024-09-28T16.41.14.206;2.520;-1.074;-0.036;0.160;-2.988;30.793;8.659
1,72753E+12;2024-09-28T16.41.14.216;2.530;-1.044;-0.027;0.189;-7.561;31.829;7.866
1,72753E+12;2024-09-28T16.41.14.226;2.540;-1.074;-0.036;0.196;-7.927;25.305;3.659
1,72753E+12;2024-09-28T16.41.14.236;2.550;-1.095;-0.051;0.193;-5.244;11.402;-1.829
1,72753E+12;2024-09-28T16.41.14.246;2.560;-1.091;-0.060;0.188;-1.037;-4.756;-4.756
1,72753E+12;2024-09-28T16.41.14.256;2.570;-1.057;-0.064;0.182;3.902;-18.354;-6.951
1,72753E+12;2024-09-28T16.41.14.266;2.580;-1.010;-0.057;0.163;6.646;-22.317;-8.841
1,72753E+12;2024-09-28T16.41.14.276;2.590;-0.954;-0.057;0.133;5.915;-17.378;-7.073
1,72753E+12;2024-09-28T16.41.14.286;2.600;-0.942;-0.051;0.135;4.146;-15.122;-3.049
1,72753E+12;2024-09-28T16.41.14.296;2.610;-0.978;-0.053;0.149;3.415;-19.329;-1.159
1,72753E+12;2024-09-28T16.41.14.306;2.620;-0.986;-0.052;0.153;3.354;-21.707;-0.122
1,72753E+12;2024-09-28T16.41.14.316;2.630;-0.958;-0.044;0.162;1.829;-19.085;1.463
1,72753E+12;2024-09-28T16.41.14.326;2.640;-0.958;-0.039;0.174;0.305;-16.463;2.622
1,72753E+12;2024-09-28T16.41.14.336;2.650;-0.985;-0.050;0.189;-0.183;-18.720;3.841
1,72753E+12;2024-09-28T16.41.14.346;2.660;-1.007;-0.051;0.196;0.244;-26.524;3.598
1,72753E+12;2024-09-28T16.41.14.356;2.670;-1.021;-0.048;0.204;2.012;-40.244;2.073
1,72753E+12;2024-09-28T16.41.14.366;2.680;-1.059;-0.053;0.211;5.000;-62.744;1.280
1,72753E+12;2024-09-28T16.41.14.376;2.690;-1.097;-0.055;0.220;9.146;-93.659;0.732
1,72753E+12;2024-09-28T16.41.14.386;2.700;-1.101;-0.050;0.246;13.476;-130.122;-0.488
1,72753E+12;2024-09-28T16.41.14.396;2.710;-1.101;-0.050;0.277;18.476;-170.549;-2.561
1,72753E+12;2024-09-28T16.41.14.406;2.720;-1.116;-0.052;0.311;24.146;-215.122;-5.549
1,72753E+12;2024-09-28T16.41.14.416;2.730;-1.119;-0.060;0.338;31.890;-268.110;-9.573
1,72753E+12;2024-09-28T16.41.14.426;2.740;-1.152;-0.072;0.358;40.427;-335.610;-14.695
1,72753E+12;2024-09-28T16.41.14.436;2.750;-1.217;-0.081;0.386;47.561;-414.390;-20.976
1,72753E+12;2024-09-28T16.41.14.446;2.760;-1.208;-0.075;0.415;56.341;-486.098;-28.232
1,72753E+12;2024-09-28T16.41.14.456;2.770;-1.088;-0.090;0.446;67.073;-533.659;-34.329
1,72753E+12;2024-09-28T16.41.14.466;2.780;-0.932;-0.080;0.477;76.768;-556.159;-35.610
1,72753E+12;2024-09-28T16.41.14.476;2.790;-0.795;-0.079;0.520;84.024;-562.988;-31.951
1,72753E+12;2024-09-28T16.41.14.486;2.800;-0.680;-0.071;0.561;88.659;-558.963;-29.207
1,72753E+12;2024-09-28T16.41.14.496;2.810;-0.584;-0.059;0.611;91.037;-540.671;-26.646
1,72753E+12;2024-09-28T16.41.14.506;2.820;-0.458;-0.056;0.655;91.646;-512.134;-21.646
1,72753E+12;2024-09-28T16.41.14.516;2.830;-0.352;-0.041;0.677;90.732;-480.061;-15.610
1,72753E+12;2024-09-28T16.41.14.526;2.840;-0.302;-0.008;0.669;85.305;-446.707;-6.951
1,72753E+12;2024-09-28T16.41.14.536;2.850;-0.245;0.026;0.653;73.415;-410.915;5.061
1,72753E+12;2024-09-28T16.41.14.546;2.860;-0.101;0.076;0.667;55.793;-364.451;15.061
1,72753E+12;2024-09-28T16.41.14.556;2.870;0.148;0.116;0.723;38.049;-305.671;18.780
1,72753E+12;2024-09-28T16.41.14.566;2.880;0.338;0.147;0.809;25.000;-239.024;11.951
1,72753E+12;2024-09-28T16.41.14.576;2.890;0.333;0.125;0.880;15.061;-173.720;6.890
1,72753E+12;2024-09-28T16.41.14.586;2.900;0.246;0.089;0.911;7.317;-123.293;10.854
1,72753E+12;2024-09-28T16.41.14.596;2.910;0.198;0.095;0.929;2.683;-90.061;12.500
1,72753E+12;2024-09-28T16.41.14.606;2.920;0.156;0.060;0.964;3.476;-78.963;11.524
1,72753E+12;2024-09-28T16.41.14.616;2.930;0.024;-0.002;1.000;7.378;-97.134;11.585
1,72753E+12;2024-09-28T16.41.14.626;2.940;-0.097;0.028;1.000;8.598;-130.915;6.585
1,72753E+12;2024-09-28T16.41.14.636;2.950;-0.020;0.053;1.001;11.220;-154.268;-2.744
1,72753E+12;2024-09-28T16.41.14.646;2.960;0.139;0.038;1.003;14.390;-148.049;-7.012
1,72753E+12;2024-09-28T16.41.14.656;2.970;0.272;0.055;0.982;13.110;-120.793;-6.220
1,72753E+12;2024-09-28T16.41.14.666;2.980;0.329;0.089;0.951;8.720;-86.098;-6.463
1,72753E+12;2024-09-28T16.41.14.676;2.990;0.338;0.101;0.925;2.500;-51.463;-6.037
1,72753E+12;2024-09-28T16.41.14.686;3.000;0.354;0.109;0.918;-4.573;-17.256;-5.061
1,72753E+12;2024-09-28T16.41.14.696;3.010;0.378;0.107;0.931;-9.451;15.610;-3.659
1,72753E+12;2024-09-28T16.41.14.706;3.020;0.350;0.080;0.957;-10.610;35.427;0.488
1,72753E+12;2024-09-28T16.41.14.716;3.030;0.240;0.076;0.964;-10.915;37.561;1.646
1,72753E+12;2024-09-28T16.41.14.726;3.040;0.168;0.070;0.966;-10.061;30.061;0.793
1,72753E+12;2024-09-28T16.41.14.736;3.050;0.166;0.061;0.979;-8.171;24.695;0.915
1,72753E+12;2024-09-28T16.41.14.746;3.060;0.193;0.056;0.985;-6.037;22.012;0.366
1,72753E+12;2024-09-28T16.41.14.756;3.070;0.183;0.053;0.982;-3.841;20.122;-1.829
1,72753E+12;2024-09-28T16.41.14.766;3.080;0.161;0.046;0.975;-2.317;17.317;-3.049
1,72753E+12;2024-09-28T16.41.14.776;3.090;0.163;0.057;0.957;-2.317;14.573;-4.390
1,72753E+12;2024-09-28T16.41.14.786;3.100;0.172;0.063;0.957;-3.110;13.354;-4.634
1,72753E+12;2024-09-28T16.41.14.796;3.110;0.179;0.058;0.975;-2.805;9.573;-3.476
1,72753E+12;2024-09-28T16.41.14.806;3.120;0.175;0.067;0.989;-2.195;2.622;-4.268
1,72753E+12;2024-09-28T16.41.14.816;3.130;0.161;0.059;0.997;-1.585;-4.512;-4.512
1,72753E+12;2024-09-28T16.41.14.826;3.140;0.156;0.052;0.997;-0.793;-8.841;-3.720
1,72753E+12;2024-09-28T16.41.14.836;3.150;0.187;0.063;0.987;-0.122;-7.134;-3.415
1,72753E+12;2024-09-28T16.41.14.846;3.160;0.220;0.060;0.981;-0.244;0.488;-2.561
1,72753E+12;2024-09-28T16.41.14.856;3.170;0.231;0.065;0.975;-1.524;10.122;-1.951
1,72753E+12;2024-09-28T16.41.14.866;3.180;0.236;0.077;0.966;-3.415;21.402;-3.049
1,72753E+12;2024-09-28T16.41.14.876;3.190;0.244;0.080;0.961;-5.427;36.585;-3.598
1,72753E+12;2024-09-28T16.41.14.886;3.200;0.246;0.084;0.967;-7.744;51.768;-1.220
1,72753E+12;2024-09-28T16.41.14.896;3.210;0.226;0.092;0.970;-11.159;62.866;0.793
1,72753E+12;2024-09-28T16.41.14.906;3.220;0.204;0.094;0.977;-14.878;72.500;0.732
1,72753E+12;2024-09-28T16.41.14.916;3.230;0.201;0.084;0.980;-18.171;84.817;1.341
1,72753E+12;2024-09-28T16.41.14.926;3.240;0.208;0.079;0.976;-21.037;102.683;1.951
1,72753E+12;2024-09-28T16.41.14.936;3.250;0.207;0.067;0.963;-25.000;130.671;2.317
1,72753E+12;2024-09-28T16.41.14.946;3.260;0.228;0.061;0.939;-31.646;176.159;2.866
1,72753E+12;2024-09-28T16.41.14.956;3.270;0.296;0.062;0.907;-40.488;240.976;3.841
1,72753E+12;2024-09-28T16.41.14.966;3.280;0.317;0.062;0.869;-51.524;318.598;5.793
1,72753E+12;2024-09-28T16.41.14.976;3.290;0.239;0.064;0.807;-65.244;399.085;9.939
1,72753E+12;2024-09-28T16.41.14.986;3.300;0.154;0.065;0.746;-79.390;475.183;15.000
1,72753E+12;2024-09-28T16.41.14.996;3.310;0.054;0.059;0.689;-92.378;543.415;19.878
1,72753E+12;2024-09-28T16.41.15.006;3.320;-0.090;0.046;0.625;-103.415;603.232;25.122
1,72753E+12;2024-09-28T16.41.15.016;3.330;-0.232;0.002;0.576;-109.756;647.500;32.805
1,72753E+12;2024-09-28T16.41.15.026;3.340;-0.414;-0.034;0.534;-111.951;669.268;40.183
1,72753E+12;2024-09-28T16.41.15.036;3.350;-0.634;-0.057;0.482;-110.732;668.659;47.988
1,72753E+12;2024-09-28T16.41.15.046;3.360;-0.797;-0.083;0.418;-109.695;640.000;55.976
1,72753E+12;2024-09-28T16.41.15.056;3.370;-0.955;-0.084;0.351;-107.805;572.134;60.915
1,72753E+12;2024-09-28T16.41.15.066;3.380;-1.165;-0.113;0.370;-96.280;476.829;61.463
1,72753E+12;2024-09-28T16.41.15.076;3.390;-1.223;-0.143;0.411;-76.890;381.585;56.159
1,72753E+12;2024-09-28T16.41.15.086;3.400;-1.123;-0.160;0.384;-55.549;307.622;47.378
1,72753E+12;2024-09-28T16.41.15.096;3.410;-1.036;-0.159;0.343;-34.756;257.805;38.780
1,72753E+12;2024-09-28T16.41.15.106;3.420;-1.028;-0.142;0.275;-18.598;222.073;32.378
1,72753E+12;2024-09-28T16.41.15.116;3.430;-1.065;-0.134;0.213;-7.683;180.305;28.537
1,72753E+12;2024-09-28T16.41.15.126;3.440;-1.148;-0.094;0.179;-1.524;129.634;24.146
1,72753E+12;2024-09-28T16.41.15.136;3.450;-1.171;-0.072;0.178;0.854;83.720;20.183
1,72753E+12;2024-09-28T16.41.15.146;3.460;-1.111;-0.052;0.205;1.951;57.012;17.561
1,72753E+12;2024-09-28T16.41.15.156;3.470;-1.028;-0.035;0.229;1.829;49.512;15.610
1,72753E+12;2024-09-28T16.41.15.166;3.480;-1.003;-0.015;0.230;0.549;49.329;12.927
1,72753E+12;2024-09-28T16.41.15.176;3.490;-1.036;-0.013;0.218;-1.768;42.683;10.915
1,72753E+12;2024-09-28T16.41.15.186;3.500;-1.070;-0.023;0.223;-1.829;25.671;7.805
1,72753E+12;2024-09-28T16.41.15.196;3.510;-1.095;-0.027;0.226;0.183;8.659;3.232
1,72753E+12;2024-09-28T16.41.15.206;3.520;-1.051;-0.035;0.191;-0.183;3.171;-0.976
1,72753E+12;2024-09-28T16.41.15.216;3.530;-0.989;-0.038;0.170;-1.829;3.780;-1.829
1,72753E+12;2024-09-28T16.41.15.226;3.540;-1.012;-0.037;0.164;-2.439;0.183;-1.402
1,72753E+12;2024-09-28T16.41.15.236;3.550;-1.029;-0.042;0.163;-1.402;-7.317;-2.500
1,72753E+12;2024-09-28T16.41.15.246;3.560;-1.005;-0.041;0.162;0.122;-12.012;-3.537
1,72753E+12;2024-09-28T16.41.15.256;3.570;-0.984;-0.040;0.167;0.915;-12.317;-3.780
1,72753E+12;2024-09-28T16.41.15.266;3.580;-0.979;-0.038;0.180;1.585;-12.988;-3.415
1,72753E+12;2024-09-28T16.41.15.276;3.590;-0.986;-0.039;0.199;2.561;-18.049;-3.293
1,72753E+12;2024-09-28T16.41.15.286;3.600;-1.002;-0.033;0.203;3.476;-25.488;-3.720
1,72753E+12;2024-09-28T16.41.15.296;3.610;-1.006;-0.031;0.206;3.293;-32.744;-3.841
1,72753E+12;2024-09-28T16.41.15.306;3.620;-1.001;-0.028;0.209;2.622;-39.756;-4.756
1,72753E+12;2024-09-28T16.41.15.316;3.630;-1.000;-0.028;0.215;2.500;-50.549;-6.463
1,72753E+12;2024-09-28T16.41.15.326;3.640;-1.040;-0.036;0.221;3.659;-70.793;-7.866
1,72753E+12;2024-09-28T16.41.15.336;3.650;-1.102;-0.041;0.224;5.915;-106.646;-8.171
1,72753E+12;2024-09-28T16.41.15.346;3.660;-1.148;-0.053;0.245;11.463;-161.890;-8.415
1,72753E+12;2024-09-28T16.41.15.356;3.670;-1.182;-0.066;0.282;21.890;-234.817;-12.927
1,72753E+12;2024-09-28T16.41.15.366;3.680;-1.205;-0.077;0.325;34.939;-318.110;-22.195
1,72753E+12;2024-09-28T16.41.15.376;3.690;-1.190;-0.069;0.365;47.317;-399.634;-35.061
1,72753E+12;2024-09-28T16.41.15.386;3.700;-1.144;-0.069;0.400;57.256;-472.195;-48.476
1,72753E+12;2024-09-28T16.41.15.396;3.710;-1.107;-0.056;0.429;64.207;-528.781;-59.756
1,72753E+12;2024-09-28T16.41.15.406;3.720;-1.007;-0.047;0.471;67.378;-563.171;-64.329
1,72753E+12;2024-09-28T16.41.15.416;3.730;-0.862;-0.045;0.526;68.598;-577.988;-62.988
1,72753E+12;2024-09-28T16.41.15.426;3.740;-0.733;-0.056;0.563;68.476;-580.183;-57.866
1,72753E+12;2024-09-28T16.41.15.436;3.750;-0.638;-0.058;0.603;68.049;-572.927;-50.549
1,72753E+12;2024-09-28T16.41.15.446;3.760;-0.549;-0.067;0.647;68.293;-562.134;-41.341
1,72753E+12;2024-09-28T16.41.15.456;3.770;-0.459;-0.066;0.678;67.256;-548.720;-34.573
1,72753E+12;2024-09-28T16.41.15.466;3.780;-0.344;-0.040;0.698;65.244;-530.305;-31.951
1,72753E+12;2024-09-28T16.41.15.476;3.790;-0.228;-0.050;0.743;65.793;-511.707;-27.622
1,72753E+12;2024-09-28T16.41.15.486;3.800;-0.190;-0.051;0.785;66.585;-497.073;-23.110
1,72753E+12;2024-09-28T16.41.15.496;3.810;-0.145;-0.024;0.794;64.512;-477.195;-22.500
1,72753E+12;2024-09-28T16.41.15.506;3.820;0.030;0.018;0.775;59.512;-434.451;-22.927
1,72753E+12;2024-09-28T16.41.15.516;3.830;0.260;0.037;0.767;51.159;-356.585;-20.732
1,72753E+12;2024-09-28T16.41.15.526;3.840;0.471;0.072;0.766;36.524;-239.390;-15.549
1,72753E+12;2024-09-28T16.41.15.536;3.850;0.680;0.079;0.789;20.671;-108.598;-5.061
1,72753E+12;2024-09-28T16.41.15.546;3.860;0.719;0.087;0.820;6.220;-1.768;5.732
1,72753E+12;2024-09-28T16.41.15.556;3.870;0.518;0.114;0.842;-4.207;48.598;10.366
1,72753E+12;2024-09-28T16.41.15.566;3.880;0.211;0.076;0.880;-9.634;42.683;11.220
1,72753E+12;2024-09-28T16.41.15.576;3.890;0.055;0.067;0.923;-11.463;12.012;8.354
1,72753E+12;2024-09-28T16.41.15.586;3.900;0.125;0.074;0.948;-10.000;-12.073;2.378
1,72753E+12;2024-09-28T16.41.15.596;3.910;0.229;0.040;0.976;-5.427;-17.866;-2.866
1,72753E+12;2024-09-28T16.41.15.606;3.920;0.243;0.027;0.984;-1.463;-7.622;-5.549
1,72753E+12;2024-09-28T16.41.15.616;3.930;0.242;0.031;0.966;-1.037;13.841;-4.207
1,72753E+12;2024-09-28T16.41.15.626;3.940;0.288;0.041;0.946;-3.354;41.646;-2.073
1,72753E+12;2024-09-28T16.41.15.636;3.950;0.311;0.061;0.938;-6.585;68.659;-1.768
1,72753E+12;2024-09-28T16.41.15.646;3.960;0.266;0.053;0.939;-8.049;80.793;0.427
1,72753E+12;2024-09-28T16.41.15.656;3.970;0.153;0.037;0.965;-6.646;64.756;3.780
1,72753E+12;2024-09-28T16.41.15.666;3.980;0.029;0.033;0.987;-4.573;25.488;2.561
1,72753E+12;2024-09-28T16.41.15.676;3.990;0.007;0.038;1.002;-1.402;-15.305;-1.037
1,72753E+12;2024-09-28T16.41.15.686;4.000;0.094;0.032;1.019;3.293;-37.439;-3.537
1,72753E+12;2024-09-28T16.41.15.696;4.010;0.185;0.025;1.022;7.012;-36.524;-3.476
1,72753E+12;2024-09-28T16.41.15.706;4.020;0.224;0.028;1.011;7.683;-19.573;-2.439
1,72753E+12;2024-09-28T16.41.15.716;4.030;0.238;0.033;0.988;4.939;2.134;-1.402
1,72753E+12;2024-09-28T16.41.15.726;4.040;0.231;0.039;0.964;0.793;20.183;-1.951
1,72753E+12;2024-09-28T16.41.15.736;4.050;0.189;0.042;0.959;-4.024;33.780;-2.561
1,72753E+12;2024-09-28T16.41.15.746;4.060;0.179;0.036;0.979;-6.707;40.305;-1.341
1,72753E+12;2024-09-28T16.41.15.756;4.070;0.168;0.023;0.991;-6.280;36.463;-1.646
1,72753E+12;2024-09-28T16.41.15.766;4.080;0.103;0.008;0.997;-4.085;18.963;-3.476
1,72753E+12;2024-09-28T16.41.15.776;4.090;0.051;0.008;0.994;-1.402;-3.354;-5.976
1,72753E+12;2024-09-28T16.41.15.786;4.100;0.077;0.012;1.002;1.098;-15.732;-7.378
1,72753E+12;2024-09-28T16.41.15.796;4.110;0.152;0.010;1.010;3.110;-14.207;-6.646
1,72753E+12;2024-09-28T16.41.15.806;4.120;0.191;0.025;0.997;2.988;-5.549;-6.463
1,72753E+12;2024-09-28T16.41.15.816;4.130;0.184;0.037;0.983;1.037;2.500;-6.829
1,72753E+12;2024-09-28T16.41.15.826;4.140;0.166;0.039;0.975;-0.854;7.134;-6.768
1,72753E+12;2024-09-28T16.41.15.836;4.150;0.158;0.038;0.971;-3.232;8.232;-5.915
1,72753E+12;2024-09-28T16.41.15.846;4.160;0.170;0.042;0.984;-4.390;6.768;-6.402
1,72753E+12;2024-09-28T16.41.15.856;4.170;0.176;0.038;0.997;-4.024;5.915;-6.463
1,72753E+12;2024-09-28T16.41.15.866;4.180;0.179;0.038;0.996;-3.780;7.744;-4.756
1,72753E+12;2024-09-28T16.41.15.876;4.190;0.207;0.057;0.966;-7.317;22.927;-4.207
1,72753E+12;2024-09-28T16.41.15.886;4.200;0.315;0.090;0.922;-18.232;73.110;-4.451
1,72753E+12;2024-09-28T16.41.15.896;4.210;0.539;0.124;0.877;-33.659;176.524;-5.610
1,72753E+12;2024-09-28T16.41.15.906;4.220;0.725;0.111;0.854;-48.110;319.268;-1.768
1,72753E+12;2024-09-28T16.41.15.916;4.230;0.685;0.087;0.798;-65.854;468.537;10.427
1,72753E+12;2024-09-28T16.41.15.926;4.240;0.508;0.134;0.680;-89.573;601.402;21.768
1,72753E+12;2024-09-28T16.41.15.936;4.250;0.352;0.157;0.518;-116.159;723.110;25.793
1,72753E+12;2024-09-28T16.41.15.946;4.260;0.190;0.103;0.369;-138.902;829.878;30.366
1,72753E+12;2024-09-28T16.41.15.956;4.270;-0.158;0.051;0.210;-155.976;912.073;41.280
1,72753E+12;2024-09-28T16.41.15.966;4.280;-0.563;-0.029;0.104;-167.256;946.220;66.280
1,72753E+12;2024-09-28T16.41.15.976;4.290;-0.977;-0.123;0.050;-170.854;891.585;95.671
1,72753E+12;2024-09-28T16.41.15.986;4.300;-1.391;-0.121;0.053;-162.256;746.951;99.085
1,72753E+12;2024-09-28T16.41.15.996;4.310;-1.585;-0.188;0.204;-134.207;559.695;90.671
1,72753E+12;2024-09-28T16.41.16.006;4.320;-1.499;-0.262;0.360;-81.402;379.573;80.183
1,72753E+12;2024-09-28T16.41.16.016;4.330;-1.322;-0.280;0.370;-21.098;238.171;58.720
1,72753E+12;2024-09-28T16.41.16.026;4.340;-1.171;-0.260;0.277;24.146;148.902;36.829
1,72753E+12;2024-09-28T16.41.16.036;4.350;-1.099;-0.190;0.190;47.500;102.683;25.061
1,72753E+12;2024-09-28T16.41.16.046;4.360;-1.085;-0.109;0.124;52.622;78.598;17.927
1,72753E+12;2024-09-28T16.41.16.056;4.370;-1.064;-0.032;0.120;43.293;61.829;18.476
1,72753E+12;2024-09-28T16.41.16.066;4.380;-1.037;0.013;0.166;28.598;49.451;20.915
1,72753E+12;2024-09-28T16.41.16.076;4.390;-1.073;0.026;0.201;14.329;47.256;19.634
1,72753E+12;2024-09-28T16.41.16.086;4.400;-1.089;0.027;0.253;4.573;49.451;16.768
1,72753E+12;2024-09-28T16.41.16.096;4.410;-1.098;0.001;0.273;0.854;39.451;9.634
1,72753E+12;2024-09-28T16.41.16.106;4.420;-1.159;-0.032;0.257;1.890;13.293;-0.366
1,72753E+12;2024-09-28T16.41.16.116;4.430;-1.170;-0.046;0.245;6.098;-14.573;-7.866
1,72753E+12;2024-09-28T16.41.16.126;4.440;-1.094;-0.044;0.231;9.512;-27.012;-14.817
1,72753E+12;2024-09-28T16.41.16.136;4.450;-1.026;-0.043;0.194;8.902;-25.793;-17.317
1,72753E+12;2024-09-28T16.41.16.146;4.460;-1.008;-0.043;0.183;7.073;-26.037;-15.976
1,72753E+12;2024-09-28T16.41.16.156;4.470;-1.021;-0.055;0.189;6.829;-30.549;-15.976
1,72753E+12;2024-09-28T16.41.16.166;4.480;-0.996;-0.064;0.197;8.049;-32.561;-15.122
1,72753E+12;2024-09-28T16.41.16.176;4.490;-0.979;-0.067;0.203;9.207;-32.012;-12.256
1,72753E+12;2024-09-28T16.41.16.186;4.500;-0.968;-0.064;0.212;10.000;-32.622;-9.573
1,72753E+12;2024-09-28T16.41.16.196;4.510;-0.948;-0.058;0.225;10.793;-34.390;-7.927
1,72753E+12;2024-09-28T16.41.16.206;4.520;-0.929;-0.057;0.248;12.256;-37.805;-6.646
1,72753E+12;2024-09-28T16.41.16.216;4.530;-0.950;-0.056;0.274;13.598;-46.280;-6.159
1,72753E+12;2024-09-28T16.41.16.226;4.540;-0.986;-0.054;0.295;14.451;-62.683;-6.524
1,72753E+12;2024-09-28T16.41.16.236;4.550;-0.999;-0.053;0.312;15.183;-83.232;-8.049
1,72753E+12;2024-09-28T16.41.16.246;4.560;-1.011;-0.047;0.333;;;
1,72753E+12;2024-09-28T16.41.16.256;4.570;-1.018;-0.050;0.352;;;
