epoc (ms);timestamp (+0300);elapsed (s);acc_x;acc_y;acc_z;gyr_x;gyr_y;gyr_z
1,72753E+12;2024-09-28T16.34.13.332;0.000;0.260;0.155;0.886;1.280;-40.732;6.524
1,72753E+12;2024-09-28T16.34.13.342;0.010;0.276;0.157;0.901;0.488;-45.427;6.524
1,72753E+12;2024-09-28T16.34.13.352;0.020;0.339;0.148;0.924;0.732;-59.390;4.573
1,72753E+12;2024-09-28T16.34.13.362;0.030;0.416;0.129;0.913;0.488;-62.256;1.890
1,72753E+12;2024-09-28T16.34.13.372;0.040;0.463;0.137;0.895;-0.854;-47.866;-0.244
1,72753E+12;2024-09-28T16.34.13.382;0.050;0.487;0.150;0.874;-3.598;-25.610;-3.476
1,72753E+12;2024-09-28T16.34.13.392;0.060;0.512;0.148;0.871;-7.073;0.671;-6.585
1,72753E+12;2024-09-28T16.34.13.402;0.070;0.494;0.140;0.886;-9.024;26.646;-6.890
1,72753E+12;2024-09-28T16.34.13.412;0.080;0.375;0.129;0.876;-7.378;37.866;-3.720
1,72753E+12;2024-09-28T16.34.13.422;0.090;0.281;0.141;0.859;-3.963;24.756;-0.244
1,72753E+12;2024-09-28T16.34.13.432;0.100;0.315;0.144;0.872;-1.585;-0.183;0.732
1,72753E+12;2024-09-28T16.34.13.442;0.110;0.398;0.137;0.901;0.244;-15.000;0.793
1,72753E+12;2024-09-28T16.34.13.452;0.120;0.432;0.132;0.921;1.951;-12.683;1.524
1,72753E+12;2024-09-28T16.34.13.462;0.130;0.451;0.136;0.915;2.988;0.549;1.402
1,72753E+12;2024-09-28T16.34.13.472;0.140;0.449;0.139;0.898;2.988;16.341;-1.037
1,72753E+12;2024-09-28T16.34.13.482;0.150;0.432;0.145;0.892;1.524;30.549;-3.354
1,72753E+12;2024-09-28T16.34.13.492;0.160;0.393;0.141;0.901;-0.427;39.390;-4.146
1,72753E+12;2024-09-28T16.34.13.502;0.170;0.318;0.120;0.909;-1.037;36.768;-2.500
1,72753E+12;2024-09-28T16.34.13.512;0.180;0.273;0.127;0.911;-0.183;18.902;-0.183
1,72753E+12;2024-09-28T16.34.13.522;0.190;0.309;0.140;0.919;0.793;-5.366;-0.488
1,72753E+12;2024-09-28T16.34.13.532;0.200;0.385;0.134;0.934;1.098;-19.085;-1.768
1,72753E+12;2024-09-28T16.34.13.542;0.210;0.429;0.134;0.946;1.280;-16.829;-1.646
1,72753E+12;2024-09-28T16.34.13.552;0.220;0.436;0.137;0.944;0.976;-4.024;-2.073
1,72753E+12;2024-09-28T16.34.13.562;0.230;0.425;0.133;0.937;0.427;10.244;-2.134
1,72753E+12;2024-09-28T16.34.13.572;0.240;0.404;0.141;0.926;-0.183;20.305;-2.012
1,72753E+12;2024-09-28T16.34.13.582;0.250;0.363;0.135;0.916;-1.220;23.537;-2.378
1,72753E+12;2024-09-28T16.34.13.592;0.260;0.318;0.131;0.911;-1.646;16.646;-1.220
1,72753E+12;2024-09-28T16.34.13.602;0.270;0.322;0.138;0.917;-2.012;2.378;-0.244
1,72753E+12;2024-09-28T16.34.13.612;0.280;0.371;0.133;0.934;-2.561;-8.110;-1.098
1,72753E+12;2024-09-28T16.34.13.622;0.290;0.403;0.121;0.941;-2.256;-7.439;-1.829
1,72753E+12;2024-09-28T16.34.13.632;0.300;0.405;0.123;0.936;-1.707;0.488;-1.220
1,72753E+12;2024-09-28T16.34.13.642;0.310;0.394;0.130;0.923;-1.402;8.841;-1.646
1,72753E+12;2024-09-28T16.34.13.652;0.320;0.379;0.133;0.906;-1.524;14.634;-2.744
1,72753E+12;2024-09-28T16.34.13.662;0.330;0.388;0.145;0.902;-2.195;18.598;-2.683
1,72753E+12;2024-09-28T16.34.13.672;0.340;0.397;0.140;0.906;-2.683;21.768;-2.195
1,72753E+12;2024-09-28T16.34.13.682;0.350;0.350;0.130;0.903;-1.707;20.122;-0.732
1,72753E+12;2024-09-28T16.34.13.692;0.360;0.300;0.135;0.898;0.305;9.085;0.549
1,72753E+12;2024-09-28T16.34.13.702;0.370;0.332;0.125;0.900;1.585;-3.476;0.183
1,72753E+12;2024-09-28T16.34.13.712;0.380;0.409;0.119;0.919;2.378;-5.183;-0.122
1,72753E+12;2024-09-28T16.34.13.722;0.390;0.425;0.120;0.922;2.744;5.793;-1.159
1,72753E+12;2024-09-28T16.34.13.732;0.400;0.417;0.123;0.915;2.683;22.012;-2.500
1,72753E+12;2024-09-28T16.34.13.742;0.410;0.447;0.128;0.925;3.171;41.098;-2.988
1,72753E+12;2024-09-28T16.34.13.752;0.420;0.434;0.120;0.929;4.756;63.049;-2.927
1,72753E+12;2024-09-28T16.34.13.762;0.430;0.389;0.135;0.927;6.890;80.549;-2.195
1,72753E+12;2024-09-28T16.34.13.772;0.440;0.402;0.148;0.923;7.683;94.390;-0.183
1,72753E+12;2024-09-28T16.34.13.782;0.450;0.487;0.163;0.918;5.976;120.000;1.890
1,72753E+12;2024-09-28T16.34.13.792;0.460;0.581;0.193;0.882;2.439;167.622;2.988
1,72753E+12;2024-09-28T16.34.13.802;0.470;0.724;0.212;0.864;-5.244;247.256;1.768
1,72753E+12;2024-09-28T16.34.13.812;0.480;0.857;0.194;0.834;-16.768;366.098;-1.220
1,72753E+12;2024-09-28T16.34.13.822;0.490;0.757;0.167;0.743;-26.220;506.159;-6.707
1,72753E+12;2024-09-28T16.34.13.832;0.500;0.404;0.150;0.598;-32.927;636.463;-10.427
1,72753E+12;2024-09-28T16.34.13.842;0.510;0.094;0.160;0.438;-40.183;737.378;-3.293
1,72753E+12;2024-09-28T16.34.13.852;0.520;-0.080;0.176;0.320;-47.622;808.476;16.159
1,72753E+12;2024-09-28T16.34.13.862;0.530;-0.277;0.161;0.242;-53.841;856.402;36.037
1,72753E+12;2024-09-28T16.34.13.872;0.540;-0.594;0.163;0.175;-56.280;871.768;51.646
1,72753E+12;2024-09-28T16.34.13.882;0.550;-0.950;0.155;0.148;-57.500;837.378;63.476
1,72753E+12;2024-09-28T16.34.13.892;0.560;-1.185;0.125;0.171;-57.988;751.768;69.756
1,72753E+12;2024-09-28T16.34.13.902;0.570;-1.264;0.101;0.219;-55.610;637.927;68.476
1,72753E+12;2024-09-28T16.34.13.912;0.580;-1.232;0.099;0.221;-50.854;527.622;61.890
1,72753E+12;2024-09-28T16.34.13.922;0.590;-1.189;0.076;0.202;-44.512;436.707;53.232
1,72753E+12;2024-09-28T16.34.13.932;0.600;-1.248;0.079;0.162;-37.256;357.439;42.439
1,72753E+12;2024-09-28T16.34.13.942;0.610;-1.327;0.081;0.128;-28.537;280.000;29.451
1,72753E+12;2024-09-28T16.34.13.952;0.620;-1.263;0.078;0.122;-20.793;206.829;19.817
1,72753E+12;2024-09-28T16.34.13.962;0.630;-1.149;0.081;0.133;-13.659;149.756;10.793
1,72753E+12;2024-09-28T16.34.13.972;0.640;-1.102;0.095;0.132;-6.890;112.622;3.659
1,72753E+12;2024-09-28T16.34.13.982;0.650;-1.103;0.114;0.113;-2.317;86.585;1.341
1,72753E+12;2024-09-28T16.34.13.992;0.660;-1.094;0.150;0.110;-0.793;63.902;2.622
1,72753E+12;2024-09-28T16.34.14.002;0.670;-1.025;0.170;0.108;-0.915;46.524;5.549
1,72753E+12;2024-09-28T16.34.14.012;0.680;-0.936;0.173;0.103;-2.622;41.341;8.110
1,72753E+12;2024-09-28T16.34.14.022;0.690;-0.916;0.170;0.085;-5.488;46.890;9.146
1,72753E+12;2024-09-28T16.34.14.032;0.700;-0.979;0.163;0.066;-7.866;51.524;8.963
1,72753E+12;2024-09-28T16.34.14.042;0.710;-1.049;0.157;0.059;-9.756;46.220;7.500
1,72753E+12;2024-09-28T16.34.14.052;0.720;-1.084;0.155;0.069;-10.305;32.256;5.061
1,72753E+12;2024-09-28T16.34.14.062;0.730;-1.074;0.145;0.092;-7.439;15.000;3.476
1,72753E+12;2024-09-28T16.34.14.072;0.740;-1.059;0.142;0.109;-2.561;-2.012;1.159
1,72753E+12;2024-09-28T16.34.14.082;0.750;-1.032;0.139;0.110;3.232;-15.976;-1.768
1,72753E+12;2024-09-28T16.34.14.092;0.760;-1.013;0.149;0.096;7.561;-25.671;-3.293
1,72753E+12;2024-09-28T16.34.14.102;0.770;-1.006;0.161;0.090;9.329;-32.256;-2.561
1,72753E+12;2024-09-28T16.34.14.112;0.780;-1.001;0.167;0.079;8.537;-37.622;-1.524
1,72753E+12;2024-09-28T16.34.14.122;0.790;-0.986;0.174;0.076;6.463;-42.134;0.305
1,72753E+12;2024-09-28T16.34.14.132;0.800;-0.968;0.171;0.093;3.232;-45.671;1.951
1,72753E+12;2024-09-28T16.34.14.142;0.810;-0.979;0.166;0.118;0.122;-48.780;2.439
1,72753E+12;2024-09-28T16.34.14.152;0.820;-1.003;0.158;0.144;-1.646;-55.732;2.683
1,72753E+12;2024-09-28T16.34.14.162;0.830;-1.031;0.145;0.174;-1.890;-71.707;0.732
1,72753E+12;2024-09-28T16.34.14.172;0.840;-1.065;0.140;0.204;-1.037;-96.524;-3.598
1,72753E+12;2024-09-28T16.34.14.182;0.850;-1.096;0.142;0.216;1.037;-127.683;-8.110
1,72753E+12;2024-09-28T16.34.14.192;0.860;-1.097;0.147;0.225;3.293;-162.988;-10.976
1,72753E+12;2024-09-28T16.34.14.202;0.870;-1.063;0.151;0.231;4.451;-197.683;-13.780
1,72753E+12;2024-09-28T16.34.14.212;0.880;-1.030;0.143;0.247;3.659;-230.915;-15.305
1,72753E+12;2024-09-28T16.34.14.222;0.890;-1.063;0.151;0.258;2.073;-272.439;-16.402
1,72753E+12;2024-09-28T16.34.14.232;0.900;-1.058;0.139;0.273;0.671;-321.037;-20.610
1,72753E+12;2024-09-28T16.34.14.242;0.910;-1.007;0.123;0.318;-1.159;-368.537;-23.659
1,72753E+12;2024-09-28T16.34.14.252;0.920;-0.943;0.128;0.398;-1.585;-413.049;-24.695
1,72753E+12;2024-09-28T16.34.14.262;0.930;-0.874;0.124;0.451;-1.463;-450.305;-30.122
1,72753E+12;2024-09-28T16.34.14.272;0.940;-0.782;0.108;0.507;-2.622;-470.244;-35.061
1,72753E+12;2024-09-28T16.34.14.282;0.950;-0.667;0.101;0.586;-4.573;-469.329;-31.890
1,72753E+12;2024-09-28T16.34.14.292;0.960;-0.559;0.084;0.653;-6.341;-451.341;-26.159
1,72753E+12;2024-09-28T16.34.14.302;0.970;-0.468;0.070;0.719;-7.195;-422.805;-20.854
1,72753E+12;2024-09-28T16.34.14.312;0.980;-0.418;0.065;0.782;-6.220;-390.427;-15.671
1,72753E+12;2024-09-28T16.34.14.322;0.990;-0.399;0.042;0.826;-2.683;-358.780;-11.829
1,72753E+12;2024-09-28T16.34.14.332;1.000;-0.427;0.037;0.843;3.171;-338.963;-7.378
1,72753E+12;2024-09-28T16.34.14.342;1.010;-0.422;0.048;0.835;8.598;-336.890;-4.512
1,72753E+12;2024-09-28T16.34.14.352;1.020;-0.328;0.089;0.823;12.805;-344.207;-3.902
1,72753E+12;2024-09-28T16.34.14.362;1.030;-0.153;0.133;0.844;12.439;-341.951;-5.427
1,72753E+12;2024-09-28T16.34.14.372;1.040;0.002;0.133;0.888;8.963;-319.146;-7.805
1,72753E+12;2024-09-28T16.34.14.382;1.050;0.094;0.132;0.919;6.037;-280.610;-7.012
1,72753E+12;2024-09-28T16.34.14.392;1.060;0.139;0.138;0.933;2.134;-234.695;-6.037
1,72753E+12;2024-09-28T16.34.14.402;1.070;0.089;0.104;0.951;-1.890;-190.427;-5.122
1,72753E+12;2024-09-28T16.34.14.412;1.080;-0.065;0.102;0.934;-3.598;-171.402;0.244
1,72753E+12;2024-09-28T16.34.14.422;1.090;-0.057;0.117;0.916;-6.951;-177.866;2.012
1,72753E+12;2024-09-28T16.34.14.432;1.100;0.054;0.107;0.927;-10.488;-194.024;0.000
1,72753E+12;2024-09-28T16.34.14.442;1.110;0.139;0.111;0.944;-12.622;-201.829;-3.293
1,72753E+12;2024-09-28T16.34.14.452;1.120;0.173;0.097;0.962;-12.805;-201.768;-7.378
1,72753E+12;2024-09-28T16.34.14.462;1.130;0.177;0.091;0.962;-10.976;-199.146;-10.183
1,72753E+12;2024-09-28T16.34.14.472;1.140;0.223;0.095;0.956;-8.049;-192.805;-13.049
1,72753E+12;2024-09-28T16.34.14.482;1.150;0.270;0.085;0.949;-5.366;-177.744;-13.841
1,72753E+12;2024-09-28T16.34.14.492;1.160;0.278;0.085;0.934;-2.927;-158.171;-10.549
1,72753E+12;2024-09-28T16.34.14.502;1.170;0.313;0.097;0.928;-1.220;-139.207;-7.073
1,72753E+12;2024-09-28T16.34.14.512;1.180;0.365;0.095;0.920;-1.524;-118.659;-5.366
1,72753E+12;2024-09-28T16.34.14.522;1.190;0.363;0.099;0.904;-2.134;-98.659;-2.988
1,72753E+12;2024-09-28T16.34.14.532;1.200;0.360;0.116;0.888;-3.110;-85.183;-1.402
1,72753E+12;2024-09-28T16.34.14.542;1.210;0.390;0.115;0.891;-5.122;-75.366;-2.134
1,72753E+12;2024-09-28T16.34.14.552;1.220;0.405;0.110;0.892;-6.707;-63.232;-2.683
1,72753E+12;2024-09-28T16.34.14.562;1.230;0.415;0.109;0.893;-7.317;-48.232;-2.256
1,72753E+12;2024-09-28T16.34.14.572;1.240;0.414;0.092;0.921;-7.622;-30.305;-1.341
1,72753E+12;2024-09-28T16.34.14.582;1.250;0.357;0.068;0.935;-5.915;-14.207;1.159
1,72753E+12;2024-09-28T16.34.14.592;1.260;0.298;0.062;0.926;-2.195;-8.232;4.512
1,72753E+12;2024-09-28T16.34.14.602;1.270;0.295;0.077;0.897;1.463;-15.061;6.585
1,72753E+12;2024-09-28T16.34.14.612;1.280;0.338;0.095;0.885;3.049;-26.585;5.671
1,72753E+12;2024-09-28T16.34.14.622;1.290;0.380;0.109;0.877;2.744;-35.305;2.439
1,72753E+12;2024-09-28T16.34.14.632;1.300;0.407;0.116;0.869;1.280;-40.244;-0.732
1,72753E+12;2024-09-28T16.34.14.642;1.310;0.430;0.116;0.889;-1.159;-40.366;-3.841
1,72753E+12;2024-09-28T16.34.14.652;1.320;0.444;0.099;0.922;-3.354;-32.744;-5.854
1,72753E+12;2024-09-28T16.34.14.662;1.330;0.469;0.083;0.953;-3.720;-15.671;-4.939
1,72753E+12;2024-09-28T16.34.14.672;1.340;0.459;0.065;0.962;-1.768;6.463;-2.073
1,72753E+12;2024-09-28T16.34.14.682;1.350;0.398;0.068;0.935;1.463;24.024;0.549
1,72753E+12;2024-09-28T16.34.14.692;1.360;0.337;0.084;0.909;4.634;27.988;2.073
1,72753E+12;2024-09-28T16.34.14.702;1.370;0.304;0.096;0.885;6.220;16.890;2.744
1,72753E+12;2024-09-28T16.34.14.712;1.380;0.328;0.108;0.876;5.854;-1.280;1.585
1,72753E+12;2024-09-28T16.34.14.722;1.390;0.376;0.108;0.903;3.659;-14.085;-0.854
1,72753E+12;2024-09-28T16.34.14.732;1.400;0.402;0.098;0.940;1.707;-15.854;-1.646
1,72753E+12;2024-09-28T16.34.14.742;1.410;0.409;0.090;0.963;0.671;-8.659;-1.280
1,72753E+12;2024-09-28T16.34.14.752;1.420;0.403;0.080;0.966;0.122;3.293;-0.732
1,72753E+12;2024-09-28T16.34.14.762;1.430;0.375;0.083;0.945;0.427;11.463;0.000
1,72753E+12;2024-09-28T16.34.14.772;1.440;0.338;0.092;0.914;0.244;10.671;-0.732
1,72753E+12;2024-09-28T16.34.14.782;1.450;0.341;0.098;0.901;-1.768;2.927;-3.354
1,72753E+12;2024-09-28T16.34.14.792;1.460;0.366;0.104;0.906;-3.780;-5.854;-5.915
1,72753E+12;2024-09-28T16.34.14.802;1.470;0.398;0.103;0.918;-5.244;-9.512;-8.049
1,72753E+12;2024-09-28T16.34.14.812;1.480;0.417;0.104;0.922;-5.915;-7.988;-9.329
1,72753E+12;2024-09-28T16.34.14.822;1.490;0.422;0.101;0.930;-5.915;-2.805;-9.634
1,72753E+12;2024-09-28T16.34.14.832;1.500;0.412;0.092;0.940;-5.366;3.963;-8.354
1,72753E+12;2024-09-28T16.34.14.842;1.510;0.399;0.090;0.933;-4.146;9.695;-6.646
1,72753E+12;2024-09-28T16.34.14.852;1.520;0.401;0.091;0.930;-2.744;13.720;-5.854
1,72753E+12;2024-09-28T16.34.14.862;1.530;0.404;0.089;0.940;-1.524;18.415;-5.366
1,72753E+12;2024-09-28T16.34.14.872;1.540;0.389;0.076;0.939;0.366;23.537;-3.841
1,72753E+12;2024-09-28T16.34.14.882;1.550;0.374;0.083;0.924;2.195;24.817;-2.012
1,72753E+12;2024-09-28T16.34.14.892;1.560;0.385;0.108;0.901;2.927;20.793;-2.378
1,72753E+12;2024-09-28T16.34.14.902;1.570;0.414;0.126;0.883;1.585;15.732;-4.695
1,72753E+12;2024-09-28T16.34.14.912;1.580;0.494;0.149;0.861;-2.683;17.195;-7.866
1,72753E+12;2024-09-28T16.34.14.922;1.590;0.571;0.150;0.861;-9.268;32.134;-13.049
1,72753E+12;2024-09-28T16.34.14.932;1.600;0.529;0.121;0.888;-15.915;55.915;-19.939
1,72753E+12;2024-09-28T16.34.14.942;1.610;0.427;0.097;0.914;-20.976;80.244;-26.951
1,72753E+12;2024-09-28T16.34.14.952;1.620;0.391;0.091;0.922;-23.963;106.280;-31.341
1,72753E+12;2024-09-28T16.34.14.962;1.630;0.445;0.096;0.930;-25.366;140.183;-29.695
1,72753E+12;2024-09-28T16.34.14.972;1.640;0.552;0.113;0.928;-27.134;187.927;-26.463
1,72753E+12;2024-09-28T16.34.14.982;1.650;0.593;0.127;0.892;-30.366;249.024;-27.439
1,72753E+12;2024-09-28T16.34.14.992;1.660;0.458;0.117;0.848;-36.220;314.878;-30.305
1,72753E+12;2024-09-28T16.34.15.002;1.670;0.264;0.107;0.813;-44.451;374.207;-27.073
1,72753E+12;2024-09-28T16.34.15.012;1.680;0.224;0.101;0.802;-53.720;430.122;-13.598
1,72753E+12;2024-09-28T16.34.15.022;1.690;0.223;0.088;0.774;-62.195;495.610;3.476
1,72753E+12;2024-09-28T16.34.15.032;1.700;0.048;0.035;0.730;-66.524;572.561;16.402
1,72753E+12;2024-09-28T16.34.15.042;1.710;-0.184;-0.002;0.650;-64.939;641.890;35.549
1,72753E+12;2024-09-28T16.34.15.052;1.720;-0.296;-0.015;0.552;-56.341;694.817;60.732
1,72753E+12;2024-09-28T16.34.15.062;1.730;-0.332;0.003;0.439;-45.183;736.098;83.415
1,72753E+12;2024-09-28T16.34.15.072;1.740;-0.444;0.030;0.325;-32.805;760.305;97.378
1,72753E+12;2024-09-28T16.34.15.082;1.750;-0.658;0.054;0.229;-19.878;750.671;102.073
1,72753E+12;2024-09-28T16.34.15.092;1.760;-0.878;0.051;0.180;-8.537;704.756;99.329
1,72753E+12;2024-09-28T16.34.15.102;1.770;-1.072;0.048;0.146;0.244;630.915;91.829
1,72753E+12;2024-09-28T16.34.15.112;1.780;-1.239;0.043;0.091;6.951;540.000;80.488
1,72753E+12;2024-09-28T16.34.15.122;1.790;-1.393;0.067;0.007;11.280;442.317;68.110
1,72753E+12;2024-09-28T16.34.15.132;1.800;-1.366;0.118;0.009;6.463;354.268;58.720
1,72753E+12;2024-09-28T16.34.15.142;1.810;-1.129;0.156;0.010;-5.244;294.573;51.037
1,72753E+12;2024-09-28T16.34.15.152;1.820;-1.055;0.142;0.057;-18.232;259.756;41.585
1,72753E+12;2024-09-28T16.34.15.162;1.830;-1.231;0.133;0.107;-24.939;221.524;32.134
1,72753E+12;2024-09-28T16.34.15.172;1.840;-1.283;0.114;0.113;-24.756;164.939;21.951
1,72753E+12;2024-09-28T16.34.15.182;1.850;-1.192;0.123;0.115;-21.098;104.085;11.098
1,72753E+12;2024-09-28T16.34.15.192;1.860;-1.107;0.126;0.115;-16.280;62.561;2.683
1,72753E+12;2024-09-28T16.34.15.202;1.870;-1.072;0.119;0.109;-10.000;41.098;-1.829
1,72753E+12;2024-09-28T16.34.15.212;1.880;-1.058;0.111;0.092;-1.951;26.951;-3.354
1,72753E+12;2024-09-28T16.34.15.222;1.890;-1.034;0.107;0.068;6.402;13.659;-4.085
1,72753E+12;2024-09-28T16.34.15.232;1.900;-1.019;0.108;0.048;13.902;2.073;-4.268
1,72753E+12;2024-09-28T16.34.15.242;1.910;-1.039;0.123;0.027;19.390;-6.585;-2.805
1,72753E+12;2024-09-28T16.34.15.252;1.920;-1.044;0.143;0.021;21.402;-13.171;-0.244
1,72753E+12;2024-09-28T16.34.15.262;1.930;-1.037;0.161;0.026;19.085;-17.195;1.707
1,72753E+12;2024-09-28T16.34.15.272;1.940;-1.054;0.167;0.045;13.963;-21.463;2.012
1,72753E+12;2024-09-28T16.34.15.282;1.950;-1.104;0.161;0.061;7.866;-31.524;0.488
1,72753E+12;2024-09-28T16.34.15.292;1.960;-1.131;0.157;0.078;2.012;-48.171;-2.256
1,72753E+12;2024-09-28T16.34.15.302;1.970;-1.119;0.146;0.107;-2.073;-68.293;-4.024
1,72753E+12;2024-09-28T16.34.15.312;1.980;-1.125;0.125;0.137;-3.659;-93.049;-6.220
1,72753E+12;2024-09-28T16.34.15.322;1.990;-1.157;0.107;0.162;-1.037;-124.817;-10.000
1,72753E+12;2024-09-28T16.34.15.332;2.000;-1.193;0.097;0.167;5.183;-167.378;-15.000
1,72753E+12;2024-09-28T16.34.15.342;2.010;-1.201;0.086;0.189;13.293;-220.488;-19.634
1,72753E+12;2024-09-28T16.34.15.352;2.020;-1.160;0.091;0.210;23.354;-274.939;-26.220
1,72753E+12;2024-09-28T16.34.15.362;2.030;-1.109;0.080;0.237;30.732;-319.878;-32.622
1,72753E+12;2024-09-28T16.34.15.372;2.040;-1.083;0.078;0.269;35.000;-357.256;-33.354
1,72753E+12;2024-09-28T16.34.15.382;2.050;-1.064;0.070;0.292;37.744;-392.927;-33.049
1,72753E+12;2024-09-28T16.34.15.392;2.060;-1.041;0.060;0.341;38.354;-430.549;-32.988
1,72753E+12;2024-09-28T16.34.15.402;2.070;-1.020;0.054;0.402;38.537;-471.890;-32.866
1,72753E+12;2024-09-28T16.34.15.412;2.080;-0.947;0.070;0.465;40.183;-513.720;-32.805
1,72753E+12;2024-09-28T16.34.15.422;2.090;-0.772;0.072;0.533;42.805;-538.963;-34.085
1,72753E+12;2024-09-28T16.34.15.432;2.100;-0.609;0.068;0.600;44.878;-540.549;-30.854
1,72753E+12;2024-09-28T16.34.15.442;2.110;-0.507;0.083;0.649;46.951;-525.915;-24.329
1,72753E+12;2024-09-28T16.34.15.452;2.120;-0.435;0.099;0.679;48.902;-507.073;-16.707
1,72753E+12;2024-09-28T16.34.15.462;2.130;-0.393;0.110;0.677;49.695;-494.451;-8.780
1,72753E+12;2024-09-28T16.34.15.472;2.140;-0.302;0.127;0.688;48.171;-485.976;-1.707
1,72753E+12;2024-09-28T16.34.15.482;2.150;-0.182;0.135;0.713;45.854;-474.634;4.329
1,72753E+12;2024-09-28T16.34.15.492;2.160;-0.074;0.156;0.747;42.866;-454.634;8.902
1,72753E+12;2024-09-28T16.34.15.502;2.170;0.007;0.151;0.780;38.659;-426.098;10.793
1,72753E+12;2024-09-28T16.34.15.512;2.180;0.093;0.164;0.781;34.329;-390.488;14.634
1,72753E+12;2024-09-28T16.34.15.522;2.190;0.234;0.185;0.786;26.890;-342.622;17.195
1,72753E+12;2024-09-28T16.34.15.532;2.200;0.369;0.180;0.819;15.122;-278.902;19.329
1,72753E+12;2024-09-28T16.34.15.542;2.210;0.421;0.187;0.861;4.695;-209.268;23.049
1,72753E+12;2024-09-28T16.34.15.552;2.220;0.383;0.187;0.887;-2.927;-147.805;24.268
1,72753E+12;2024-09-28T16.34.15.562;2.230;0.309;0.176;0.889;-7.195;-104.268;20.732
1,72753E+12;2024-09-28T16.34.15.572;2.240;0.240;0.160;0.898;-8.415;-81.646;15.854
1,72753E+12;2024-09-28T16.34.15.582;2.250;0.177;0.150;0.905;-6.951;-80.976;13.232
1,72753E+12;2024-09-28T16.34.15.592;2.260;0.193;0.160;0.919;-4.268;-91.341;9.634
1,72753E+12;2024-09-28T16.34.15.602;2.270;0.268;0.158;0.928;-2.378;-98.354;4.207
1,72753E+12;2024-09-28T16.34.15.612;2.280;0.330;0.152;0.938;-1.280;-90.244;0.610
1,72753E+12;2024-09-28T16.34.15.622;2.290;0.378;0.157;0.942;-0.427;-67.195;0.122
1,72753E+12;2024-09-28T16.34.15.632;2.300;0.390;0.158;0.932;-0.610;-37.378;1.159
1,72753E+12;2024-09-28T16.34.15.642;2.310;0.369;0.158;0.899;-1.890;-9.573;2.500
1,72753E+12;2024-09-28T16.34.15.652;2.320;0.350;0.166;0.885;-3.598;8.963;3.537
1,72753E+12;2024-09-28T16.34.15.662;2.330;0.323;0.166;0.897;-5.366;17.073;3.110
1,72753E+12;2024-09-28T16.34.15.672;2.340;0.279;0.156;0.908;-5.244;15.671;1.159
1,72753E+12;2024-09-28T16.34.15.682;2.350;0.258;0.143;0.932;-3.476;8.659;0.793
1,72753E+12;2024-09-28T16.34.15.692;2.360;0.260;0.132;0.974;-0.305;3.598;1.707
1,72753E+12;2024-09-28T16.34.15.702;2.370;0.258;0.128;0.972;3.841;4.451;2.744
1,72753E+12;2024-09-28T16.34.15.712;2.380;0.260;0.138;0.948;6.585;9.634;3.598
1,72753E+12;2024-09-28T16.34.15.722;2.390;0.286;0.155;0.938;6.951;18.415;4.146
1,72753E+12;2024-09-28T16.34.15.732;2.400;0.301;0.156;0.934;5.976;30.061;4.085
1,72753E+12;2024-09-28T16.34.15.742;2.410;0.257;0.150;0.927;5.488;36.951;4.268
1,72753E+12;2024-09-28T16.34.15.752;2.420;0.176;0.153;0.917;5.427;27.683;4.451
1,72753E+12;2024-09-28T16.34.15.762;2.430;0.146;0.165;0.926;4.634;1.768;2.561
1,72753E+12;2024-09-28T16.34.15.772;2.440;0.203;0.155;0.968;2.622;-23.049;-0.976
1,72753E+12;2024-09-28T16.34.15.782;2.450;0.257;0.137;0.998;1.524;-32.134;-1.829
1,72753E+12;2024-09-28T16.34.15.792;2.460;0.291;0.137;1.001;1.280;-25.793;-0.732
1,72753E+12;2024-09-28T16.34.15.802;2.470;0.311;0.144;0.987;0.488;-11.159;-0.976
1,72753E+12;2024-09-28T16.34.15.812;2.480;0.309;0.150;0.968;0.000;6.524;-2.378
1,72753E+12;2024-09-28T16.34.15.822;2.490;0.259;0.145;0.956;-0.244;19.024;-2.866
1,72753E+12;2024-09-28T16.34.15.832;2.500;0.198;0.138;0.935;-0.305;18.963;-1.768
1,72753E+12;2024-09-28T16.34.15.842;2.510;0.182;0.156;0.936;-0.061;5.244;-1.220
1,72753E+12;2024-09-28T16.34.15.852;2.520;0.217;0.157;0.962;-0.244;-10.976;-2.988
1,72753E+12;2024-09-28T16.34.15.862;2.530;0.276;0.152;0.974;-0.061;-17.744;-2.927
1,72753E+12;2024-09-28T16.34.15.872;2.540;0.292;0.161;0.984;0.183;-15.061;-2.805
1,72753E+12;2024-09-28T16.34.15.882;2.550;0.291;0.150;0.984;-1.341;-5.976;-4.695
1,72753E+12;2024-09-28T16.34.15.892;2.560;0.291;0.150;0.973;-2.317;4.085;-4.695
1,72753E+12;2024-09-28T16.34.15.902;2.570;0.283;0.155;0.964;-3.476;10.366;-4.146
1,72753E+12;2024-09-28T16.34.15.912;2.580;0.275;0.152;0.956;-4.939;11.585;-5.244
1,72753E+12;2024-09-28T16.34.15.922;2.590;0.282;0.156;0.945;-5.732;8.293;-6.280
1,72753E+12;2024-09-28T16.34.15.932;2.600;0.330;0.166;0.926;-6.646;5.732;-8.293
1,72753E+12;2024-09-28T16.34.15.942;2.610;0.451;0.166;0.931;-9.573;20.244;-12.073
1,72753E+12;2024-09-28T16.34.15.952;2.620;0.556;0.141;0.977;-12.622;62.439;-14.085
1,72753E+12;2024-09-28T16.34.15.962;2.630;0.530;0.119;0.993;-12.317;125.061;-15.000
1,72753E+12;2024-09-28T16.34.15.972;2.640;0.468;0.105;0.997;-10.671;194.634;-15.915
1,72753E+12;2024-09-28T16.34.15.982;2.650;0.418;0.133;0.981;-8.476;258.720;-15.427
1,72753E+12;2024-09-28T16.34.15.992;2.660;0.430;0.204;0.894;-8.476;318.963;-17.073
1,72753E+12;2024-09-28T16.34.16.002;2.670;0.563;0.223;0.806;-15.854;396.890;-24.878
1,72753E+12;2024-09-28T16.34.16.012;2.680;0.596;0.204;0.703;-29.695;505.793;-32.134
1,72753E+12;2024-09-28T16.34.16.022;2.690;0.420;0.170;0.555;-43.598;643.415;-38.963
1,72753E+12;2024-09-28T16.34.16.032;2.700;0.045;0.100;0.378;-56.220;779.939;-30.305
1,72753E+12;2024-09-28T16.34.16.042;2.710;-0.332;0.084;0.211;-62.439;885.854;2.805
1,72753E+12;2024-09-28T16.34.16.052;2.720;-0.588;0.134;0.080;-63.476;943.171;45.427
1,72753E+12;2024-09-28T16.34.16.062;2.730;-0.778;0.145;0.006;-62.378;944.451;75.305
1,72753E+12;2024-09-28T16.34.16.072;2.740;-1.021;0.124;0.003;-58.659;883.598;85.915
1,72753E+12;2024-09-28T16.34.16.082;2.750;-1.249;0.118;0.014;-52.134;771.159;87.317
1,72753E+12;2024-09-28T16.34.16.092;2.760;-1.336;0.103;0.014;-42.256;631.220;85.610
1,72753E+12;2024-09-28T16.34.16.102;2.770;-1.321;0.137;-0.013;-32.195;490.854;79.268
1,72753E+12;2024-09-28T16.34.16.112;2.780;-1.212;0.143;-0.018;-23.841;377.500;62.866
1,72753E+12;2024-09-28T16.34.16.122;2.790;-1.208;0.149;-0.001;-15.671;296.585;44.451
1,72753E+12;2024-09-28T16.34.16.132;2.800;-1.265;0.123;0.021;-6.402;233.902;26.585
1,72753E+12;2024-09-28T16.34.16.142;2.810;-1.248;0.113;0.027;3.110;169.939;10.732
1,72753E+12;2024-09-28T16.34.16.152;2.820;-1.189;0.133;0.007;11.402;105.854;-4.024
1,72753E+12;2024-09-28T16.34.16.162;2.830;-1.173;0.168;-0.024;15.244;52.012;-13.171
1,72753E+12;2024-09-28T16.34.16.172;2.840;-1.127;0.197;-0.050;12.988;18.537;-14.207
1,72753E+12;2024-09-28T16.34.16.182;2.850;-0.998;0.203;-0.026;6.585;8.415;-8.659
1,72753E+12;2024-09-28T16.34.16.192;2.860;-0.925;0.193;-0.000;0.061;12.195;-2.134
1,72753E+12;2024-09-28T16.34.16.202;2.870;-0.951;0.189;0.017;-4.268;14.939;3.354
1,72753E+12;2024-09-28T16.34.16.212;2.880;-0.974;0.187;0.007;-5.488;8.598;7.500
1,72753E+12;2024-09-28T16.34.16.222;2.890;-0.968;0.186;0.000;-6.829;-2.012;8.902
1,72753E+12;2024-09-28T16.34.16.232;2.900;-0.965;0.178;0.010;-8.720;-7.744;7.866
1,72753E+12;2024-09-28T16.34.16.242;2.910;-0.992;0.172;0.027;-9.207;-8.659;5.427
1,72753E+12;2024-09-28T16.34.16.252;2.920;-1.010;0.164;0.027;-8.232;-9.207;2.622
1,72753E+12;2024-09-28T16.34.16.262;2.930;-1.043;0.155;0.031;-6.098;-13.049;-0.671
1,72753E+12;2024-09-28T16.34.16.272;2.940;-1.078;0.148;0.031;-3.232;-20.976;-3.720
1,72753E+12;2024-09-28T16.34.16.282;2.950;-1.062;0.141;0.031;0.000;-30.549;-5.366
1,72753E+12;2024-09-28T16.34.16.292;2.960;-1.018;0.147;0.037;2.744;-37.500;-6.585
1,72753E+12;2024-09-28T16.34.16.302;2.970;-1.020;0.150;0.031;4.939;-40.732;-6.768
1,72753E+12;2024-09-28T16.34.16.312;2.980;-1.024;0.154;0.028;5.244;-43.293;-5.366
1,72753E+12;2024-09-28T16.34.16.322;2.990;-0.991;0.165;0.035;4.085;-46.768;-4.146
1,72753E+12;2024-09-28T16.34.16.332;3.000;-0.974;0.167;0.043;1.524;-46.646;-4.390
1,72753E+12;2024-09-28T16.34.16.342;3.010;-1.014;0.163;0.056;-1.159;-46.098;-2.744
1,72753E+12;2024-09-28T16.34.16.352;3.020;-1.025;0.156;0.066;-2.866;-50.305;-0.427
1,72753E+12;2024-09-28T16.34.16.362;3.030;-1.022;0.151;0.093;-3.963;-59.390;0.000
1,72753E+12;2024-09-28T16.34.16.372;3.040;-1.039;0.151;0.107;-3.963;-71.890;-1.220
1,72753E+12;2024-09-28T16.34.16.382;3.050;-1.043;0.152;0.113;-4.085;-86.829;-3.537
1,72753E+12;2024-09-28T16.34.16.392;3.060;-1.054;0.126;0.140;-4.512;-104.146;-5.488
1,72753E+12;2024-09-28T16.34.16.402;3.070;-1.088;0.130;0.155;-0.305;-127.317;-7.805
1,72753E+12;2024-09-28T16.34.16.412;3.080;-1.139;0.123;0.170;5.183;-161.585;-11.280
1,72753E+12;2024-09-28T16.34.16.422;3.090;-1.151;0.145;0.199;10.488;-208.780;-13.841
1,72753E+12;2024-09-28T16.34.16.432;3.100;-1.079;0.139;0.236;12.988;-256.707;-19.268
1,72753E+12;2024-09-28T16.34.16.442;3.110;-1.049;0.132;0.277;14.329;-300.610;-24.146
1,72753E+12;2024-09-28T16.34.16.452;3.120;-1.050;0.152;0.299;17.134;-345.488;-26.951
1,72753E+12;2024-09-28T16.34.16.462;3.130;-0.982;0.141;0.333;18.354;-386.220;-31.707
1,72753E+12;2024-09-28T16.34.16.472;3.140;-0.898;0.141;0.372;18.598;-417.805;-33.293
1,72753E+12;2024-09-28T16.34.16.482;3.150;-0.773;0.153;0.413;18.415;-435.549;-32.378
1,72753E+12;2024-09-28T16.34.16.492;3.160;-0.630;0.127;0.485;15.061;-432.134;-32.561
1,72753E+12;2024-09-28T16.34.16.502;3.170;-0.631;0.129;0.567;12.317;-416.220;-28.354
1,72753E+12;2024-09-28T16.34.16.512;3.180;-0.614;0.134;0.607;12.988;-398.902;-21.707
1,72753E+12;2024-09-28T16.34.16.522;3.190;-0.512;0.096;0.652;14.207;-381.768;-15.061
1,72753E+12;2024-09-28T16.34.16.532;3.200;-0.520;0.115;0.693;16.463;-374.878;-7.439
1,72753E+12;2024-09-28T16.34.16.542;3.210;-0.571;0.150;0.714;20.183;-384.024;-7.012
1,72753E+12;2024-09-28T16.34.16.552;3.220;-0.518;0.145;0.733;21.707;-400.610;-9.634
1,72753E+12;2024-09-28T16.34.16.562;3.230;-0.397;0.171;0.768;20.061;-412.866;-8.293
1,72753E+12;2024-09-28T16.34.16.572;3.240;-0.278;0.164;0.798;15.549;-410.854;-9.756
1,72753E+12;2024-09-28T16.34.16.582;3.250;-0.169;0.117;0.850;10.427;-390.976;-11.707
1,72753E+12;2024-09-28T16.34.16.592;3.260;-0.215;0.084;0.914;10.366;-370.976;-7.561
1,72753E+12;2024-09-28T16.34.16.602;3.270;-0.375;0.111;0.883;15.915;-384.878;-1.402
1,72753E+12;2024-09-28T16.34.16.612;3.280;-0.328;0.145;0.834;19.817;-432.073;-4.573
1,72753E+12;2024-09-28T16.34.16.622;3.290;-0.026;0.145;0.845;19.573;-467.561;-14.451
1,72753E+12;2024-09-28T16.34.16.632;3.300;0.292;0.154;0.866;18.049;-455.183;-19.085
1,72753E+12;2024-09-28T16.34.16.642;3.310;0.464;0.169;0.855;15.244;-397.683;-18.049
1,72753E+12;2024-09-28T16.34.16.652;3.320;0.611;0.186;0.843;8.537;-305.915;-14.756
1,72753E+12;2024-09-28T16.34.16.662;3.330;0.746;0.194;0.876;-2.378;-192.988;-8.232
1,72753E+12;2024-09-28T16.34.16.672;3.340;0.727;0.170;0.932;-12.622;-78.354;-1.646
1,72753E+12;2024-09-28T16.34.16.682;3.350;0.523;0.153;0.932;-14.207;7.622;2.378
1,72753E+12;2024-09-28T16.34.16.692;3.360;0.261;0.136;0.925;-9.695;43.354;4.268
1,72753E+12;2024-09-28T16.34.16.702;3.370;0.106;0.145;0.911;-2.744;30.366;6.707
1,72753E+12;2024-09-28T16.34.16.712;3.380;0.118;0.183;0.885;3.110;-10.305;6.829
1,72753E+12;2024-09-28T16.34.16.722;3.390;0.228;0.200;0.882;3.780;-49.207;0.854
1,72753E+12;2024-09-28T16.34.16.732;3.400;0.302;0.184;0.904;0.793;-67.073;-6.890
1,72753E+12;2024-09-28T16.34.16.742;3.410;0.347;0.168;0.918;-3.049;-61.463;-9.634
1,72753E+12;2024-09-28T16.34.16.752;3.420;0.391;0.169;0.935;-5.427;-43.415;-7.805
1,72753E+12;2024-09-28T16.34.16.762;3.430;0.412;0.157;0.951;-7.195;-18.415;-7.256
1,72753E+12;2024-09-28T16.34.16.772;3.440;0.407;0.130;0.936;-8.110;9.024;-7.134
1,72753E+12;2024-09-28T16.34.16.782;3.450;0.350;0.133;0.915;-7.500;29.329;-5.488
1,72753E+12;2024-09-28T16.34.16.792;3.460;0.280;0.145;0.898;-5.793;35.244;-5.732
1,72753E+12;2024-09-28T16.34.16.802;3.470;0.229;0.143;0.900;-3.537;26.159;-4.695
1,72753E+12;2024-09-28T16.34.16.812;3.480;0.188;0.151;0.903;-0.854;4.878;-1.646
1,72753E+12;2024-09-28T16.34.16.822;3.490;0.228;0.162;0.907;0.305;-17.805;-0.915
1,72753E+12;2024-09-28T16.34.16.832;3.500;0.307;0.157;0.934;-0.305;-29.878;-1.707
1,72753E+12;2024-09-28T16.34.16.842;3.510;0.352;0.152;0.958;-1.585;-26.037;-1.951
1,72753E+12;2024-09-28T16.34.16.852;3.520;0.357;0.147;0.962;-3.110;-12.378;-2.927
1,72753E+12;2024-09-28T16.34.16.862;3.530;0.350;0.135;0.950;-4.451;3.293;-3.780
1,72753E+12;2024-09-28T16.34.16.872;3.540;0.340;0.139;0.941;-4.451;14.207;-3.841
1,72753E+12;2024-09-28T16.34.16.882;3.550;0.332;0.138;0.949;-4.024;18.476;-4.939
1,72753E+12;2024-09-28T16.34.16.892;3.560;0.288;0.126;0.958;-2.927;14.573;-5.183
1,72753E+12;2024-09-28T16.34.16.902;3.570;0.242;0.136;0.953;-0.976;2.439;-4.024
1,72753E+12;2024-09-28T16.34.16.912;3.580;0.267;0.146;0.961;-0.549;-11.951;-2.378
1,72753E+12;2024-09-28T16.34.16.922;3.590;0.316;0.140;0.976;-1.280;-17.012;-1.220
1,72753E+12;2024-09-28T16.34.16.932;3.600;0.339;0.145;0.960;-1.829;-10.549;0.305
1,72753E+12;2024-09-28T16.34.16.942;3.610;0.334;0.157;0.944;-3.354;-0.793;0.610
1,72753E+12;2024-09-28T16.34.16.952;3.620;0.318;0.151;0.936;-5.488;7.012;-1.585
1,72753E+12;2024-09-28T16.34.16.962;3.630;0.322;0.143;0.927;-6.646;13.232;-3.415
1,72753E+12;2024-09-28T16.34.16.972;3.640;0.345;0.147;0.915;-7.012;18.537;-4.085
1,72753E+12;2024-09-28T16.34.16.982;3.650;0.312;0.138;0.913;-7.439;20.427;-5.427
1,72753E+12;2024-09-28T16.34.16.992;3.660;0.281;0.145;0.910;-7.317;14.390;-5.976
1,72753E+12;2024-09-28T16.34.17.002;3.670;0.331;0.160;0.899;-7.378;5.366;-6.098
1,72753E+12;2024-09-28T16.34.17.012;3.680;0.417;0.173;0.884;-8.415;7.378;-7.256
1,72753E+12;2024-09-28T16.34.17.022;3.690;0.552;0.180;0.870;-12.500;36.341;-8.841
1,72753E+12;2024-09-28T16.34.17.032;3.700;0.698;0.157;0.894;-18.415;100.427;-10.549
1,72753E+12;2024-09-28T16.34.17.042;3.710;0.780;0.165;0.890;-24.573;197.439;-11.280
1,72753E+12;2024-09-28T16.34.17.052;3.720;0.837;0.166;0.862;-32.805;323.232;-15.488
1,72753E+12;2024-09-28T16.34.17.062;3.730;0.757;0.141;0.821;-40.122;466.951;-17.622
1,72753E+12;2024-09-28T16.34.17.072;3.740;0.487;0.133;0.685;-44.085;604.756;-8.232
1,72753E+12;2024-09-28T16.34.17.082;3.750;0.141;0.166;0.524;-46.890;706.951;13.415
1,72753E+12;2024-09-28T16.34.17.092;3.760;-0.082;0.174;0.414;-53.293;772.927;38.171
1,72753E+12;2024-09-28T16.34.17.102;3.770;-0.151;0.156;0.350;-61.220;817.805;62.805
1,72753E+12;2024-09-28T16.34.17.112;3.780;-0.281;0.163;0.282;-66.402;855.976;81.585
1,72753E+12;2024-09-28T16.34.17.122;3.790;-0.525;0.138;0.210;-69.390;881.281;96.159
1,72753E+12;2024-09-28T16.34.17.132;3.800;-0.793;0.130;0.190;-67.378;865.000;108.476
1,72753E+12;2024-09-28T16.34.17.142;3.810;-0.985;0.057;0.176;-57.744;804.573;106.280
1,72753E+12;2024-09-28T16.34.17.152;3.820;-1.224;0.004;0.147;-40.122;704.512;103.293
1,72753E+12;2024-09-28T16.34.17.162;3.830;-1.328;0.024;0.032;-15.061;577.317;99.146
1,72753E+12;2024-09-28T16.34.17.172;3.840;-1.262;0.072;-0.074;6.037;445.732;84.329
1,72753E+12;2024-09-28T16.34.17.182;3.850;-1.323;0.129;-0.127;14.512;334.512;60.366
1,72753E+12;2024-09-28T16.34.17.192;3.860;-1.464;0.155;-0.127;13.902;247.500;37.500
1,72753E+12;2024-09-28T16.34.17.202;3.870;-1.365;0.188;-0.086;7.134;174.634;28.598
1,72753E+12;2024-09-28T16.34.17.212;3.880;-1.183;0.197;-0.033;-2.927;116.037;20.976
1,72753E+12;2024-09-28T16.34.17.222;3.890;-1.131;0.200;0.027;-12.988;78.720;8.171
1,72753E+12;2024-09-28T16.34.17.232;3.900;-1.163;0.195;0.060;-19.573;55.061;-0.244
1,72753E+12;2024-09-28T16.34.17.242;3.910;-1.126;0.179;0.087;-21.341;37.622;-2.805
1,72753E+12;2024-09-28T16.34.17.252;3.920;-1.053;0.176;0.084;-18.720;26.159;-2.561
1,72753E+12;2024-09-28T16.34.17.262;3.930;-1.024;0.170;0.076;-14.146;17.378;-1.037
1,72753E+12;2024-09-28T16.34.17.272;3.940;-1.032;0.172;0.054;-9.207;5.671;0.183
1,72753E+12;2024-09-28T16.34.17.282;3.950;-1.022;0.178;0.035;-5.305;-4.878;1.098
1,72753E+12;2024-09-28T16.34.17.292;3.960;-1.016;0.191;0.030;-3.537;-8.963;2.683
1,72753E+12;2024-09-28T16.34.17.302;3.970;-1.022;0.188;0.027;-3.415;-6.341;3.537
1,72753E+12;2024-09-28T16.34.17.312;3.980;-1.051;0.188;0.032;-4.207;-2.927;3.659
1,72753E+12;2024-09-28T16.34.17.322;3.990;-1.096;0.192;0.035;-5.305;-5.122;2.500
1,72753E+12;2024-09-28T16.34.17.332;4.000;-1.129;0.197;0.027;-6.890;-14.329;0.061
1,72753E+12;2024-09-28T16.34.17.342;4.010;-1.117;0.201;0.032;-9.146;-26.707;-2.256
1,72753E+12;2024-09-28T16.34.17.352;4.020;-1.086;0.191;0.053;-10.793;-38.232;-4.695
1,72753E+12;2024-09-28T16.34.17.362;4.030;-1.083;0.178;0.074;-10.183;-49.573;-7.927
1,72753E+12;2024-09-28T16.34.17.372;4.040;-1.089;0.168;0.091;-6.707;-65.183;-11.402
1,72753E+12;2024-09-28T16.34.17.382;4.050;-1.107;0.164;0.095;-1.524;-89.146;-14.878
1,72753E+12;2024-09-28T16.34.17.392;4.060;-1.130;0.164;0.096;3.476;-123.232;-17.927
1,72753E+12;2024-09-28T16.34.17.402;4.070;-1.122;0.168;0.112;6.829;-165.244;-20.122
1,72753E+12;2024-09-28T16.34.17.412;4.080;-1.111;0.155;0.140;9.268;-212.012;-22.439
1,72753E+12;2024-09-28T16.34.17.422;4.090;-1.148;0.149;0.173;11.890;-265.976;-23.963
1,72753E+12;2024-09-28T16.34.17.432;4.100;-1.141;0.150;0.209;14.390;-327.317;-25.976
1,72753E+12;2024-09-28T16.34.17.442;4.110;-1.060;0.130;0.239;16.402;-385.732;-30.366
1,72753E+12;2024-09-28T16.34.17.452;4.120;-1.013;0.138;0.292;17.256;-437.012;-32.561
1,72753E+12;2024-09-28T16.34.17.462;4.130;-0.926;0.149;0.370;15.915;-477.683;-34.207
1,72753E+12;2024-09-28T16.34.17.472;4.140;-0.767;0.138;0.466;14.085;-498.780;-37.073
1,72753E+12;2024-09-28T16.34.17.482;4.150;-0.654;0.118;0.554;13.171;-497.256;-38.354
1,72753E+12;2024-09-28T16.34.17.492;4.160;-0.678;0.091;0.614;15.488;-489.146;-35.854
1,72753E+12;2024-09-28T16.34.17.502;4.170;-0.745;0.081;0.635;20.305;-493.598;-30.061
1,72753E+12;2024-09-28T16.34.17.512;4.180;-0.727;0.092;0.625;25.915;-518.110;-22.866
1,72753E+12;2024-09-28T16.34.17.522;4.190;-0.585;0.127;0.613;29.451;-549.146;-17.195
1,72753E+12;2024-09-28T16.34.17.532;4.200;-0.397;0.160;0.595;28.537;-570.427;-14.939
1,72753E+12;2024-09-28T16.34.17.542;4.210;-0.195;0.189;0.621;21.829;-568.841;-12.805
1,72753E+12;2024-09-28T16.34.17.552;4.220;-0.077;0.171;0.663;12.012;-552.378;-7.561
1,72753E+12;2024-09-28T16.34.17.562;4.230;0.002;0.206;0.656;2.927;-534.512;0.000
1,72753E+12;2024-09-28T16.34.17.572;4.240;0.340;0.226;0.736;-11.646;-484.207;-5.793
1,72753E+12;2024-09-28T16.34.17.582;4.250;0.667;0.116;0.902;-27.622;-374.817;-12.622
1,72753E+12;2024-09-28T16.34.17.592;4.260;0.612;0.035;1.004;-32.744;-235.793;-9.207
1,72753E+12;2024-09-28T16.34.17.602;4.270;0.249;0.023;0.966;-26.890;-127.378;-7.744
1,72753E+12;2024-09-28T16.34.17.612;4.280;-0.058;0.045;0.890;-16.280;-92.561;-8.110
1,72753E+12;2024-09-28T16.34.17.622;4.290;-0.109;0.085;0.839;-5.305;-116.220;-7.866
1,72753E+12;2024-09-28T16.34.17.632;4.300;0.029;0.128;0.815;0.793;-157.378;-7.439
1,72753E+12;2024-09-28T16.34.17.642;4.310;0.192;0.160;0.826;2.378;-186.159;-7.927
1,72753E+12;2024-09-28T16.34.17.652;4.320;0.316;0.174;0.854;1.037;-191.646;-6.951
1,72753E+12;2024-09-28T16.34.17.662;4.330;0.447;0.170;0.892;-2.256;-172.073;-3.049
1,72753E+12;2024-09-28T16.34.17.672;4.340;0.508;0.149;0.920;-6.341;-130.061;1.159
1,72753E+12;2024-09-28T16.34.17.682;4.350;0.483;0.134;0.933;-9.329;-80.671;4.939
1,72753E+12;2024-09-28T16.34.17.692;4.360;0.432;0.116;0.933;-11.220;-36.951;5.671
1,72753E+12;2024-09-28T16.34.17.702;4.370;0.399;0.098;0.936;-11.098;-3.415;4.268
1,72753E+12;2024-09-28T16.34.17.712;4.380;0.310;0.095;0.922;-7.012;11.768;4.329
1,72753E+12;2024-09-28T16.34.17.722;4.390;0.228;0.105;0.900;-1.890;6.829;3.049
1,72753E+12;2024-09-28T16.34.17.732;4.400;0.230;0.111;0.896;1.646;-12.134;0.549
1,72753E+12;2024-09-28T16.34.17.742;4.410;0.266;0.132;0.890;3.780;-31.585;-1.220
1,72753E+12;2024-09-28T16.34.17.752;4.420;0.327;0.141;0.903;3.110;-37.683;-2.439
1,72753E+12;2024-09-28T16.34.17.762;4.430;0.401;0.133;0.929;0.488;-26.341;-0.976
