epoc (ms);timestamp (+0300);elapsed (s);acc_x;acc_y;acc_z;gyr_x;gyr_y;gyr_z
1,72753E+12;2024-09-28T16.32.47.905;0.000;0.132;0.128;0.503;-80.183;695.854;-18.110
1,72753E+12;2024-09-28T16.32.47.915;0.010;-0.137;0.116;0.459;-82.561;701.585;-17.378
1,72753E+12;2024-09-28T16.32.47.925;0.020;-0.328;0.073;0.438;-92.378;721.585;-15.061
1,72753E+12;2024-09-28T16.32.47.935;0.030;-0.468;0.044;0.433;-98.841;734.817;-7.378
1,72753E+12;2024-09-28T16.32.47.945;0.040;-0.620;0.037;0.440;-97.317;730.732;0.732
1,72753E+12;2024-09-28T16.32.47.955;0.050;-0.803;0.007;0.443;-89.878;706.037;4.756
1,72753E+12;2024-09-28T16.32.47.965;0.060;-0.975;-0.046;0.453;-79.024;657.805;9.146
1,72753E+12;2024-09-28T16.32.47.975;0.070;-1.102;-0.079;0.449;-64.085;587.195;18.049
1,72753E+12;2024-09-28T16.32.47.985;0.080;-1.125;-0.070;0.416;-47.012;506.220;27.744
1,72753E+12;2024-09-28T16.32.47.995;0.090;-1.036;-0.043;0.359;-30.488;429.207;32.195
1,72753E+12;2024-09-28T16.32.48.005;0.100;-0.965;-0.021;0.300;-17.805;370.549;27.622
1,72753E+12;2024-09-28T16.32.48.015;0.110;-1.027;-0.011;0.265;-8.415;326.890;18.841
1,72753E+12;2024-09-28T16.32.48.025;0.120;-1.154;-0.012;0.232;0.183;281.768;13.110
1,72753E+12;2024-09-28T16.32.48.035;0.130;-1.245;-0.011;0.224;8.293;222.256;11.524
1,72753E+12;2024-09-28T16.32.48.045;0.140;-1.247;0.010;0.211;15.671;152.622;9.451
1,72753E+12;2024-09-28T16.32.48.055;0.150;-1.152;0.032;0.180;20.793;90.549;5.610
1,72753E+12;2024-09-28T16.32.48.065;0.160;-1.010;0.036;0.171;21.707;52.561;3.354
1,72753E+12;2024-09-28T16.32.48.075;0.170;-0.905;0.047;0.196;20.122;42.927;3.598
1,72753E+12;2024-09-28T16.32.48.085;0.180;-0.888;0.058;0.194;17.378;52.195;3.354
1,72753E+12;2024-09-28T16.32.48.095;0.190;-0.936;0.055;0.185;13.049;63.232;3.415
1,72753E+12;2024-09-28T16.32.48.105;0.200;-1.019;0.058;0.164;8.963;60.732;3.110
1,72753E+12;2024-09-28T16.32.48.115;0.210;-1.082;0.056;0.157;6.159;43.780;-0.061
1,72753E+12;2024-09-28T16.32.48.125;0.220;-1.075;0.046;0.168;4.085;21.159;-1.402
1,72753E+12;2024-09-28T16.32.48.135;0.230;-1.018;0.055;0.179;3.415;3.720;1.220
1,72753E+12;2024-09-28T16.32.48.145;0.240;-0.969;0.063;0.178;3.415;-3.049;2.683
1,72753E+12;2024-09-28T16.32.48.155;0.250;-0.955;0.051;0.177;3.110;-1.768;3.171
1,72753E+12;2024-09-28T16.32.48.165;0.260;-0.974;0.049;0.173;2.622;0.366;5.000
1,72753E+12;2024-09-28T16.32.48.175;0.270;-0.989;0.053;0.157;2.012;0.549;4.451
1,72753E+12;2024-09-28T16.32.48.185;0.280;-1.003;0.049;0.164;1.159;-1.341;2.439
1,72753E+12;2024-09-28T16.32.48.195;0.290;-1.024;0.037;0.170;0.549;-5.061;1.341
1,72753E+12;2024-09-28T16.32.48.205;0.300;-1.020;0.032;0.173;0.549;-10.183;0.976
1,72753E+12;2024-09-28T16.32.48.215;0.310;-1.015;0.029;0.184;1.037;-15.793;-0.122
1,72753E+12;2024-09-28T16.32.48.225;0.320;-1.047;0.021;0.181;2.195;-23.537;-1.098
1,72753E+12;2024-09-28T16.32.48.235;0.330;-1.085;0.019;0.174;4.329;-37.195;-1.585
1,72753E+12;2024-09-28T16.32.48.245;0.340;-1.100;0.019;0.190;6.037;-57.988;-1.280
1,72753E+12;2024-09-28T16.32.48.255;0.350;-1.132;0.015;0.203;8.354;-86.524;-2.195
1,72753E+12;2024-09-28T16.32.48.265;0.360;-1.194;0.016;0.223;12.134;-126.585;-2.317
1,72753E+12;2024-09-28T16.32.48.275;0.370;-1.243;0.026;0.250;15.061;-180.183;-1.098
1,72753E+12;2024-09-28T16.32.48.285;0.380;-1.214;0.041;0.265;16.829;-241.951;0.061
1,72753E+12;2024-09-28T16.32.48.295;0.390;-1.119;0.057;0.297;17.744;-301.037;-0.122
1,72753E+12;2024-09-28T16.32.48.305;0.400;-0.997;0.055;0.353;16.098;-345.549;-0.427
1,72753E+12;2024-09-28T16.32.48.315;0.410;-0.919;0.044;0.424;14.390;-374.207;-0.122
1,72753E+12;2024-09-28T16.32.48.325;0.420;-0.900;0.053;0.486;14.573;-399.817;1.159
1,72753E+12;2024-09-28T16.32.48.335;0.430;-0.877;0.039;0.548;15.366;-430.488;-0.793
1,72753E+12;2024-09-28T16.32.48.345;0.440;-0.863;0.042;0.602;18.720;-467.988;-5.305
1,72753E+12;2024-09-28T16.32.48.355;0.450;-0.785;0.036;0.645;23.293;-500.610;-11.951
1,72753E+12;2024-09-28T16.32.48.365;0.460;-0.723;0.002;0.697;31.585;-530.610;-14.451
1,72753E+12;2024-09-28T16.32.48.375;0.470;-0.744;0.000;0.726;41.951;-563.659;-12.500
1,72753E+12;2024-09-28T16.32.48.385;0.480;-0.739;0.001;0.711;52.317;-602.317;-11.707
1,72753E+12;2024-09-28T16.32.48.395;0.490;-0.586;0.041;0.677;60.244;-643.293;-5.061
1,72753E+12;2024-09-28T16.32.48.405;0.500;-0.356;0.086;0.647;63.476;-674.512;2.988
1,72753E+12;2024-09-28T16.32.48.415;0.510;-0.133;0.073;0.666;62.012;-681.768;4.756
1,72753E+12;2024-09-28T16.32.48.425;0.520;-0.013;0.020;0.703;64.024;-671.646;7.256
1,72753E+12;2024-09-28T16.32.48.435;0.530;0.023;0.104;0.634;67.744;-668.902;17.378
1,72753E+12;2024-09-28T16.32.48.445;0.540;0.272;0.211;0.524;59.878;-662.927;21.707
1,72753E+12;2024-09-28T16.32.48.455;0.550;0.689;0.179;0.526;45.976;-618.171;14.817
1,72753E+12;2024-09-28T16.32.48.465;0.560;1.075;0.115;0.654;34.634;-505.244;7.195
1,72753E+12;2024-09-28T16.32.48.475;0.570;1.260;0.136;0.735;27.561;-338.720;6.280
1,72753E+12;2024-09-28T16.32.48.485;0.580;1.135;0.193;0.725;19.817;-169.695;8.598
1,72753E+12;2024-09-28T16.32.48.495;0.590;0.810;0.225;0.692;7.134;-50.000;11.159
1,72753E+12;2024-09-28T16.32.48.505;0.600;0.531;0.229;0.703;-9.024;1.524;12.378
1,72753E+12;2024-09-28T16.32.48.515;0.610;0.433;0.190;0.776;-23.293;4.878;11.463
1,72753E+12;2024-09-28T16.32.48.525;0.620;0.428;0.123;0.844;-28.415;-9.146;10.610
1,72753E+12;2024-09-28T16.32.48.535;0.630;0.452;0.104;0.867;-25.915;-24.329;12.439
1,72753E+12;2024-09-28T16.32.48.545;0.640;0.514;0.098;0.874;-20.976;-32.195;11.829
1,72753E+12;2024-09-28T16.32.48.555;0.650;0.601;0.081;0.862;-14.512;-23.171;7.256
1,72753E+12;2024-09-28T16.32.48.565;0.660;0.658;0.085;0.831;-7.378;3.659;3.598
1,72753E+12;2024-09-28T16.32.48.575;0.670;0.612;0.101;0.815;-1.768;33.720;2.317
1,72753E+12;2024-09-28T16.32.48.585;0.680;0.449;0.094;0.795;3.476;50.305;1.768
1,72753E+12;2024-09-28T16.32.48.595;0.690;0.290;0.128;0.768;7.134;35.671;5.305
1,72753E+12;2024-09-28T16.32.48.605;0.700;0.324;0.177;0.775;3.598;-4.878;7.378
1,72753E+12;2024-09-28T16.32.48.615;0.710;0.467;0.145;0.827;-0.122;-41.159;3.110
1,72753E+12;2024-09-28T16.32.48.625;0.720;0.555;0.111;0.858;0.366;-48.841;-0.061
1,72753E+12;2024-09-28T16.32.48.635;0.730;0.625;0.118;0.854;0.488;-30.854;1.829
1,72753E+12;2024-09-28T16.32.48.645;0.740;0.658;0.118;0.851;-1.463;0.305;1.463
1,72753E+12;2024-09-28T16.32.48.655;0.750;0.659;0.128;0.834;-4.268;37.317;-1.341
1,72753E+12;2024-09-28T16.32.48.665;0.760;0.621;0.119;0.839;-6.768;73.902;-4.268
1,72753E+12;2024-09-28T16.32.48.675;0.770;0.441;0.089;0.837;-5.488;91.829;-3.476
1,72753E+12;2024-09-28T16.32.48.685;0.780;0.237;0.122;0.818;-2.500;70.122;0.549
1,72753E+12;2024-09-28T16.32.48.695;0.790;0.261;0.146;0.834;-3.110;18.780;1.402
1,72753E+12;2024-09-28T16.32.48.705;0.800;0.450;0.107;0.873;-2.317;-23.963;-1.707
1,72753E+12;2024-09-28T16.32.48.715;0.810;0.564;0.083;0.893;2.988;-32.439;-3.720
1,72753E+12;2024-09-28T16.32.48.725;0.820;0.585;0.102;0.874;7.866;-14.939;-3.720
1,72753E+12;2024-09-28T16.32.48.735;0.830;0.572;0.118;0.858;9.451;8.293;-4.451
1,72753E+12;2024-09-28T16.32.48.745;0.840;0.560;0.132;0.853;8.780;27.866;-6.402
1,72753E+12;2024-09-28T16.32.48.755;0.850;0.584;0.135;0.854;7.012;46.707;-9.024
1,72753E+12;2024-09-28T16.32.48.765;0.860;0.564;0.127;0.851;6.524;66.341;-9.878
1,72753E+12;2024-09-28T16.32.48.775;0.870;0.437;0.130;0.849;7.134;76.220;-6.768
1,72753E+12;2024-09-28T16.32.48.785;0.880;0.290;0.135;0.864;6.402;61.341;-1.098
1,72753E+12;2024-09-28T16.32.48.795;0.890;0.234;0.135;0.903;5.732;21.280;1.890
1,72753E+12;2024-09-28T16.32.48.805;0.900;0.338;0.112;0.945;5.915;-18.537;-0.671
1,72753E+12;2024-09-28T16.32.48.815;0.910;0.462;0.098;0.953;8.415;-36.890;-3.780
1,72753E+12;2024-09-28T16.32.48.825;0.920;0.510;0.124;0.923;10.549;-32.805;-5.244
1,72753E+12;2024-09-28T16.32.48.835;0.930;0.521;0.137;0.888;8.598;-19.329;-7.256
1,72753E+12;2024-09-28T16.32.48.845;0.940;0.526;0.136;0.879;5.976;-5.366;-9.573
1,72753E+12;2024-09-28T16.32.48.855;0.950;0.517;0.140;0.867;5.244;6.098;-9.878
1,72753E+12;2024-09-28T16.32.48.865;0.960;0.488;0.143;0.866;4.329;11.098;-7.866
1,72753E+12;2024-09-28T16.32.48.875;0.970;0.454;0.135;0.863;4.024;9.207;-5.610
1,72753E+12;2024-09-28T16.32.48.885;0.980;0.456;0.144;0.877;3.902;2.439;-3.354
1,72753E+12;2024-09-28T16.32.48.895;0.990;0.452;0.144;0.884;4.878;-6.707;-2.622
1,72753E+12;2024-09-28T16.32.48.905;1.000;0.479;0.144;0.891;6.280;-14.329;-2.378
1,72753E+12;2024-09-28T16.32.48.915;1.010;0.514;0.143;0.889;7.988;-17.195;-2.744
1,72753E+12;2024-09-28T16.32.48.925;1.020;0.532;0.141;0.880;10.000;-14.024;-4.390
1,72753E+12;2024-09-28T16.32.48.935;1.030;0.546;0.147;0.876;11.037;-6.037;-5.915
1,72753E+12;2024-09-28T16.32.48.945;1.040;0.558;0.148;0.863;11.159;5.305;-6.768
1,72753E+12;2024-09-28T16.32.48.955;1.050;0.563;0.163;0.846;10.183;16.707;-6.890
1,72753E+12;2024-09-28T16.32.48.965;1.060;0.584;0.178;0.838;7.622;29.268;-7.134
1,72753E+12;2024-09-28T16.32.48.975;1.070;0.606;0.174;0.850;4.268;46.402;-7.378
1,72753E+12;2024-09-28T16.32.48.985;1.080;0.602;0.169;0.853;1.707;68.537;-7.317
1,72753E+12;2024-09-28T16.32.48.995;1.090;0.602;0.184;0.846;-1.098;93.963;-7.439
1,72753E+12;2024-09-28T16.32.49.005;1.100;0.644;0.197;0.839;-5.488;127.195;-8.476
1,72753E+12;2024-09-28T16.32.49.015;1.110;0.756;0.213;0.775;-13.049;180.976;-10.732
1,72753E+12;2024-09-28T16.32.49.025;1.120;0.948;0.197;0.738;-26.220;274.451;-16.707
1,72753E+12;2024-09-28T16.32.49.035;1.130;1.061;0.171;0.672;-39.329;410.366;-24.695
1,72753E+12;2024-09-28T16.32.49.045;1.140;0.981;0.184;0.509;-51.341;575.488;-31.646
1,72753E+12;2024-09-28T16.32.49.055;1.150;0.666;0.168;0.315;-64.268;735.000;-36.341
1,72753E+12;2024-09-28T16.32.49.065;1.160;0.190;0.149;0.139;-78.537;851.463;-38.354
1,72753E+12;2024-09-28T16.32.49.075;1.170;-0.226;0.130;0.032;-95.793;917.561;-40.122
1,72753E+12;2024-09-28T16.32.49.085;1.180;-0.595;0.092;0.013;-113.415;936.159;-40.305
1,72753E+12;2024-09-28T16.32.49.095;1.190;-0.930;0.035;0.058;-129.085;919.573;-38.598
1,72753E+12;2024-09-28T16.32.49.105;1.200;-1.192;-0.010;0.139;-138.841;872.073;-30.549
1,72753E+12;2024-09-28T16.32.49.115;1.210;-1.331;-0.024;0.234;-143.780;792.927;-14.878
1,72753E+12;2024-09-28T16.32.49.125;1.220;-1.321;-0.057;0.301;-142.378;698.354;1.768
1,72753E+12;2024-09-28T16.32.49.135;1.230;-1.249;-0.073;0.281;-131.341;604.268;19.146
1,72753E+12;2024-09-28T16.32.49.145;1.240;-1.169;-0.079;0.219;-117.134;519.573;33.354
1,72753E+12;2024-09-28T16.32.49.155;1.250;-1.239;-0.100;0.205;-96.829;429.512;40.732
1,72753E+12;2024-09-28T16.32.49.165;1.260;-1.320;-0.088;0.223;-69.512;330.793;44.634
1,72753E+12;2024-09-28T16.32.49.175;1.270;-1.286;-0.106;0.249;-37.317;233.171;45.732
1,72753E+12;2024-09-28T16.32.49.185;1.280;-1.191;-0.070;0.182;-5.366;151.890;39.268
1,72753E+12;2024-09-28T16.32.49.195;1.290;-1.064;-0.017;0.081;18.537;97.073;24.878
1,72753E+12;2024-09-28T16.32.49.205;1.300;-1.034;0.016;0.041;29.695;68.293;13.598
1,72753E+12;2024-09-28T16.32.49.215;1.310;-1.073;0.039;-0.001;30.122;55.671;12.378
1,72753E+12;2024-09-28T16.32.49.225;1.320;-1.066;0.065;-0.005;22.683;47.805;16.341
1,72753E+12;2024-09-28T16.32.49.235;1.330;-1.001;0.089;0.040;11.037;42.500;19.329
1,72753E+12;2024-09-28T16.32.49.245;1.340;-0.986;0.093;0.076;0.915;42.073;17.683
1,72753E+12;2024-09-28T16.32.49.255;1.350;-1.010;0.080;0.084;-4.817;40.427;16.463
1,72753E+12;2024-09-28T16.32.49.265;1.360;-1.032;0.074;0.069;-8.293;33.659;16.220
1,72753E+12;2024-09-28T16.32.49.275;1.370;-1.024;0.071;0.064;-11.402;24.085;14.817
1,72753E+12;2024-09-28T16.32.49.285;1.380;-1.027;0.057;0.060;-13.902;12.500;12.622
1,72753E+12;2024-09-28T16.32.49.295;1.390;-1.024;0.048;0.052;-15.305;2.073;8.841
1,72753E+12;2024-09-28T16.32.49.305;1.400;-1.030;0.035;0.048;-15.305;-1.829;4.939
1,72753E+12;2024-09-28T16.32.49.315;1.410;-1.055;0.030;0.037;-14.268;-1.341;3.780
1,72753E+12;2024-09-28T16.32.49.325;1.420;-1.052;0.028;0.031;-12.683;-0.366;2.927
1,72753E+12;2024-09-28T16.32.49.335;1.430;-1.038;0.028;0.046;-10.732;-0.366;1.890
1,72753E+12;2024-09-28T16.32.49.345;1.440;-1.077;0.024;0.061;-8.293;-1.890;1.159
1,72753E+12;2024-09-28T16.32.49.355;1.450;-1.114;0.030;0.049;-5.732;-9.573;1.037
1,72753E+12;2024-09-28T16.32.49.365;1.460;-1.103;0.031;0.048;-3.598;-23.110;0.061
1,72753E+12;2024-09-28T16.32.49.375;1.470;-1.090;0.035;0.059;-2.378;-38.598;-1.646
1,72753E+12;2024-09-28T16.32.49.385;1.480;-1.115;0.032;0.070;-1.280;-54.878;-4.939
1,72753E+12;2024-09-28T16.32.49.395;1.490;-1.199;0.016;0.078;0.915;-78.049;-8.293
1,72753E+12;2024-09-28T16.32.49.405;1.500;-1.291;0.005;0.081;4.207;-116.341;-10.061
1,72753E+12;2024-09-28T16.32.49.415;1.510;-1.313;0.009;0.109;8.171;-170.976;-10.671
1,72753E+12;2024-09-28T16.32.49.425;1.520;-1.281;0.004;0.147;11.951;-234.146;-11.098
1,72753E+12;2024-09-28T16.32.49.435;1.530;-1.264;0.009;0.206;18.537;-304.329;-11.463
1,72753E+12;2024-09-28T16.32.49.445;1.540;-1.228;0.018;0.252;25.732;-377.134;-15.915
1,72753E+12;2024-09-28T16.32.49.455;1.550;-1.180;0.005;0.294;32.317;-451.159;-22.805
1,72753E+12;2024-09-28T16.32.49.465;1.560;-1.176;0.014;0.341;39.451;-529.268;-27.927
1,72753E+12;2024-09-28T16.32.49.475;1.570;-1.132;0.022;0.379;46.707;-607.317;-33.049
1,72753E+12;2024-09-28T16.32.49.485;1.580;-1.000;0.011;0.428;54.451;-676.402;-36.341
1,72753E+12;2024-09-28T16.32.49.495;1.590;-0.888;0.010;0.512;64.939;-735.915;-35.549
1,72753E+12;2024-09-28T16.32.49.505;1.600;-0.817;0.020;0.573;76.707;-791.829;-33.293
1,72753E+12;2024-09-28T16.32.49.515;1.610;-0.734;0.034;0.554;88.293;-846.829;-31.220
1,72753E+12;2024-09-28T16.32.49.525;1.620;-0.587;0.047;0.478;99.207;-892.866;-26.402
1,72753E+12;2024-09-28T16.32.49.535;1.630;-0.400;0.055;0.412;106.402;-921.341;-17.134
1,72753E+12;2024-09-28T16.32.49.545;1.640;-0.183;0.031;0.344;110.549;-925.366;-5.732
1,72753E+12;2024-09-28T16.32.49.555;1.650;0.137;0.061;0.282;110.671;-898.049;9.329
1,72753E+12;2024-09-28T16.32.49.565;1.660;0.540;0.108;0.269;102.927;-831.646;22.195
1,72753E+12;2024-09-28T16.32.49.575;1.670;0.912;0.193;0.278;86.402;-726.707;29.390
1,72753E+12;2024-09-28T16.32.49.585;1.680;1.242;0.226;0.371;61.341;-581.585;29.024
1,72753E+12;2024-09-28T16.32.49.595;1.690;1.393;0.235;0.513;36.402;-418.720;28.902
1,72753E+12;2024-09-28T16.32.49.605;1.700;1.304;0.256;0.595;15.305;-264.207;28.293
1,72753E+12;2024-09-28T16.32.49.615;1.710;0.985;0.208;0.631;1.280;-150.427;21.098
1,72753E+12;2024-09-28T16.32.49.625;1.720;0.681;0.152;0.659;-5.671;-93.171;15.305
1,72753E+12;2024-09-28T16.32.49.635;1.730;0.615;0.167;0.671;-9.268;-77.866;15.427
1,72753E+12;2024-09-28T16.32.49.645;1.740;0.701;0.168;0.679;-9.390;-75.915;11.829
1,72753E+12;2024-09-28T16.32.49.655;1.750;0.818;0.151;0.670;-7.073;-61.220;5.671
1,72753E+12;2024-09-28T16.32.49.665;1.760;0.930;0.161;0.655;-6.159;-20.366;0.854
1,72753E+12;2024-09-28T16.32.49.675;1.770;0.974;0.162;0.630;-9.024;41.951;-1.890
1,72753E+12;2024-09-28T16.32.49.685;1.780;0.895;0.159;0.623;-13.110;108.415;-3.232
1,72753E+12;2024-09-28T16.32.49.695;1.790;0.664;0.139;0.641;-15.305;154.756;-2.256
1,72753E+12;2024-09-28T16.32.49.705;1.800;0.312;0.119;0.649;-13.354;149.024;1.463
1,72753E+12;2024-09-28T16.32.49.715;1.810;0.187;0.145;0.673;-12.378;91.280;5.366
1,72753E+12;2024-09-28T16.32.49.725;1.820;0.362;0.147;0.731;-11.402;18.293;4.451
1,72753E+12;2024-09-28T16.32.49.735;1.830;0.591;0.120;0.785;-5.976;-26.890;-0.915
1,72753E+12;2024-09-28T16.32.49.745;1.840;0.759;0.104;0.801;0.732;-23.841;-5.244
1,72753E+12;2024-09-28T16.32.49.755;1.850;0.797;0.121;0.771;5.610;10.427;-6.707
1,72753E+12;2024-09-28T16.32.49.765;1.860;0.802;0.161;0.720;5.122;55.244;-8.659
1,72753E+12;2024-09-28T16.32.49.775;1.870;0.832;0.160;0.706;-0.061;106.890;-12.988
1,72753E+12;2024-09-28T16.32.49.785;1.880;0.632;0.128;0.734;-3.110;146.159;-12.805
1,72753E+12;2024-09-28T16.32.49.795;1.890;0.295;0.138;0.751;-3.232;140.122;-5.244
1,72753E+12;2024-09-28T16.32.49.805;1.900;0.138;0.165;0.796;-5.061;79.268;0.366
1,72753E+12;2024-09-28T16.32.49.815;1.910;0.255;0.141;0.836;-5.976;-0.915;-0.122
1,72753E+12;2024-09-28T16.32.49.825;1.920;0.519;0.118;0.853;-2.805;-54.024;-2.195
1,72753E+12;2024-09-28T16.32.49.835;1.930;0.694;0.118;0.843;0.732;-62.500;-4.451
1,72753E+12;2024-09-28T16.32.49.845;1.940;0.756;0.121;0.823;2.744;-35.183;-8.049
1,72753E+12;2024-09-28T16.32.49.855;1.950;0.754;0.138;0.801;3.110;5.793;-10.061
1,72753E+12;2024-09-28T16.32.49.865;1.960;0.750;0.169;0.784;0.732;45.427;-10.122
1,72753E+12;2024-09-28T16.32.49.875;1.970;0.754;0.169;0.805;-3.476;81.768;-11.280
1,72753E+12;2024-09-28T16.32.49.885;1.980;0.610;0.143;0.835;-4.390;106.159;-9.878
1,72753E+12;2024-09-28T16.32.49.895;1.990;0.396;0.143;0.841;-2.439;101.220;-4.512
1,72753E+12;2024-09-28T16.32.49.905;2.000;0.300;0.157;0.852;-1.707;62.256;-0.427
1,72753E+12;2024-09-28T16.32.49.915;2.010;0.362;0.154;0.884;-1.524;10.793;0.427
1,72753E+12;2024-09-28T16.32.49.925;2.020;0.490;0.135;0.914;0.000;-26.098;-1.402
1,72753E+12;2024-09-28T16.32.49.935;2.030;0.609;0.124;0.908;1.951;-34.390;-3.537
1,72753E+12;2024-09-28T16.32.49.945;2.040;0.663;0.146;0.878;1.829;-19.207;-4.878
1,72753E+12;2024-09-28T16.32.49.955;2.050;0.632;0.154;0.846;-0.366;3.902;-7.256
1,72753E+12;2024-09-28T16.32.49.965;2.060;0.609;0.155;0.815;-3.841;22.805;-8.293
1,72753E+12;2024-09-28T16.32.49.975;2.070;0.639;0.159;0.804;-7.622;38.780;-8.171
1,72753E+12;2024-09-28T16.32.49.985;2.080;0.631;0.146;0.822;-9.146;54.695;-7.195
1,72753E+12;2024-09-28T16.32.49.995;2.090;0.495;0.130;0.841;-6.829;61.585;-3.659
1,72753E+12;2024-09-28T16.32.50.005;2.100;0.361;0.137;0.843;-3.354;45.976;1.098
1,72753E+12;2024-09-28T16.32.50.015;2.110;0.386;0.140;0.853;-0.427;15.122;2.683
1,72753E+12;2024-09-28T16.32.50.025;2.120;0.504;0.138;0.867;2.012;-7.073;1.159
1,72753E+12;2024-09-28T16.32.50.035;2.130;0.575;0.127;0.872;3.659;-7.439;-1.280
1,72753E+12;2024-09-28T16.32.50.045;2.140;0.583;0.142;0.857;3.963;6.098;-3.232
1,72753E+12;2024-09-28T16.32.50.055;2.150;0.596;0.168;0.836;0.549;22.195;-5.000
1,72753E+12;2024-09-28T16.32.50.065;2.160;0.655;0.171;0.812;-4.939;44.085;-8.415
1,72753E+12;2024-09-28T16.32.50.075;2.170;0.741;0.171;0.813;-11.220;80.122;-10.732
1,72753E+12;2024-09-28T16.32.50.085;2.180;0.822;0.177;0.818;-18.232;134.329;-11.829
1,72753E+12;2024-09-28T16.32.50.095;2.190;0.860;0.189;0.779;-25.305;206.646;-13.232
1,72753E+12;2024-09-28T16.32.50.105;2.200;0.914;0.204;0.703;-35.610;300.976;-14.024
1,72753E+12;2024-09-28T16.32.50.115;2.210;1.003;0.208;0.616;-52.256;428.659;-15.854
1,72753E+12;2024-09-28T16.32.50.125;2.220;1.033;0.182;0.494;-71.280;594.573;-18.780
1,72753E+12;2024-09-28T16.32.50.135;2.230;0.856;0.167;0.290;-88.537;780.488;-18.963
1,72753E+12;2024-09-28T16.32.50.145;2.240;0.434;0.155;0.009;-104.634;949.939;-16.646
1,72753E+12;2024-09-28T16.32.50.155;2.250;-0.110;0.113;-0.203;-120.976;1.067.805;-13.780
1,72753E+12;2024-09-28T16.32.50.165;2.260;-0.601;0.084;-0.297;-138.598;1.127.073;-5.854
1,72753E+12;2024-09-28T16.32.50.175;2.270;-1.005;0.049;-0.251;-152.317;1.129.146;6.341
1,72753E+12;2024-09-28T16.32.50.185;2.280;-1.362;-0.011;-0.094;-157.317;1.064.695;19.939
1,72753E+12;2024-09-28T16.32.50.195;2.290;-1.581;-0.075;0.081;-154.451;936.890;34.451
1,72753E+12;2024-09-28T16.32.50.205;2.300;-1.658;-0.114;0.191;-137.988;759.878;50.549
1,72753E+12;2024-09-28T16.32.50.215;2.310;-1.643;-0.080;0.217;-112.866;555.671;65.488
1,72753E+12;2024-09-28T16.32.50.225;2.320;-1.500;-0.068;0.216;-84.634;365.610;67.439
1,72753E+12;2024-09-28T16.32.50.235;2.330;-1.280;-0.095;0.217;-53.293;232.378;56.890
1,72753E+12;2024-09-28T16.32.50.245;2.340;-1.099;-0.099;0.189;-20.793;170.427;44.939
1,72753E+12;2024-09-28T16.32.50.255;2.350;-1.050;-0.045;0.143;5.305;139.817;34.817
1,72753E+12;2024-09-28T16.32.50.265;2.360;-1.078;0.001;0.036;22.317;102.012;22.012
1,72753E+12;2024-09-28T16.32.50.275;2.370;-1.120;0.015;-0.011;28.598;54.573;11.585
1,72753E+12;2024-09-28T16.32.50.285;2.380;-1.066;0.047;0.003;23.598;24.695;12.256
1,72753E+12;2024-09-28T16.32.50.295;2.390;-1.001;0.089;0.030;15.183;24.573;14.756
1,72753E+12;2024-09-28T16.32.50.305;2.400;-0.981;0.102;0.056;7.866;33.841;14.512
1,72753E+12;2024-09-28T16.32.50.315;2.410;-1.006;0.077;0.074;2.073;34.451;11.829
1,72753E+12;2024-09-28T16.32.50.325;2.420;-1.091;0.055;0.073;-1.220;21.951;9.329
1,72753E+12;2024-09-28T16.32.50.335;2.430;-1.123;0.044;0.078;-2.622;2.012;8.415
1,72753E+12;2024-09-28T16.32.50.345;2.440;-1.065;0.036;0.084;-2.805;-15.000;8.232
1,72753E+12;2024-09-28T16.32.50.355;2.450;-1.026;0.044;0.072;-2.317;-22.683;6.463
1,72753E+12;2024-09-28T16.32.50.365;2.460;-1.025;0.052;0.056;-1.646;-24.024;4.512
1,72753E+12;2024-09-28T16.32.50.375;2.470;-1.037;0.048;0.056;-1.159;-24.207;2.805
1,72753E+12;2024-09-28T16.32.50.385;2.480;-1.082;0.044;0.063;-0.915;-27.561;0.488
1,72753E+12;2024-09-28T16.32.50.395;2.490;-1.118;0.037;0.075;0.122;-36.707;-1.585
1,72753E+12;2024-09-28T16.32.50.405;2.500;-1.136;0.032;0.090;2.195;-52.317;-2.500
1,72753E+12;2024-09-28T16.32.50.415;2.510;-1.155;0.027;0.113;4.695;-73.659;-3.659
1,72753E+12;2024-09-28T16.32.50.425;2.520;-1.188;0.024;0.143;7.805;-102.622;-4.939
1,72753E+12;2024-09-28T16.32.50.435;2.530;-1.262;0.014;0.166;13.171;-146.951;-4.756
1,72753E+12;2024-09-28T16.32.50.445;2.540;-1.353;0.031;0.183;19.329;-214.329;-4.146
1,72753E+12;2024-09-28T16.32.50.455;2.550;-1.383;0.043;0.181;24.268;-298.841;-6.951
1,72753E+12;2024-09-28T16.32.50.465;2.560;-1.300;0.039;0.215;28.171;-385.976;-10.732
1,72753E+12;2024-09-28T16.32.50.475;2.570;-1.171;0.034;0.287;31.341;-461.463;-14.634
1,72753E+12;2024-09-28T16.32.50.485;2.580;-1.077;0.025;0.372;34.451;-518.841;-21.037
1,72753E+12;2024-09-28T16.32.50.495;2.590;-0.962;0.009;0.453;37.744;-557.988;-28.171
1,72753E+12;2024-09-28T16.32.50.505;2.600;-0.876;0.014;0.523;43.537;-584.085;-33.232
1,72753E+12;2024-09-28T16.32.50.515;2.610;-0.827;0.012;0.592;51.707;-601.768;-36.768
1,72753E+12;2024-09-28T16.32.50.525;2.620;-0.762;0.004;0.655;60.366;-617.866;-36.037
1,72753E+12;2024-09-28T16.32.50.535;2.630;-0.669;0.032;0.688;68.720;-637.561;-31.951
1,72753E+12;2024-09-28T16.32.50.545;2.640;-0.569;0.058;0.678;76.341;-658.963;-28.598
1,72753E+12;2024-09-28T16.32.50.555;2.650;-0.473;0.070;0.640;82.012;-678.963;-24.146
1,72753E+12;2024-09-28T16.32.50.565;2.660;-0.353;0.092;0.579;83.354;-696.707;-15.305
1,72753E+12;2024-09-28T16.32.50.575;2.670;-0.104;0.135;0.538;77.683;-699.451;-4.878
1,72753E+12;2024-09-28T16.32.50.585;2.680;0.265;0.152;0.569;66.159;-665.000;3.232
1,72753E+12;2024-09-28T16.32.50.595;2.690;0.548;0.107;0.657;55.671;-587.866;9.451
1,72753E+12;2024-09-28T16.32.50.605;2.700;0.624;0.141;0.685;49.695;-492.683;17.439
1,72753E+12;2024-09-28T16.32.50.615;2.710;0.684;0.189;0.689;38.049;-388.963;20.305
1,72753E+12;2024-09-28T16.32.50.625;2.720;0.691;0.116;0.764;26.098;-291.890;20.610
1,72753E+12;2024-09-28T16.32.50.635;2.730;0.453;0.115;0.797;22.744;-234.634;26.768
1,72753E+12;2024-09-28T16.32.50.645;2.740;0.166;0.182;0.746;22.073;-239.817;29.085
1,72753E+12;2024-09-28T16.32.50.655;2.750;0.169;0.213;0.701;17.683;-293.232;25.488
1,72753E+12;2024-09-28T16.32.50.665;2.760;0.461;0.171;0.684;13.780;-339.634;20.610
1,72753E+12;2024-09-28T16.32.50.675;2.770;0.790;0.153;0.705;13.171;-334.573;14.756
1,72753E+12;2024-09-28T16.32.50.685;2.780;0.983;0.144;0.711;10.793;-271.646;10.183
1,72753E+12;2024-09-28T16.32.50.695;2.790;0.989;0.143;0.697;7.927;-182.622;6.524
1,72753E+12;2024-09-28T16.32.50.705;2.800;0.921;0.159;0.674;3.354;-95.793;4.512
1,72753E+12;2024-09-28T16.32.50.715;2.810;0.835;0.177;0.649;-3.110;-28.780;2.927
1,72753E+12;2024-09-28T16.32.50.725;2.820;0.799;0.183;0.641;-10.061;16.829;1.341
1,72753E+12;2024-09-28T16.32.50.735;2.830;0.770;0.150;0.679;-14.573;49.939;-0.854
1,72753E+12;2024-09-28T16.32.50.745;2.840;0.628;0.111;0.713;-12.256;70.793;-0.793
1,72753E+12;2024-09-28T16.32.50.755;2.850;0.462;0.116;0.729;-6.951;67.317;3.659
1,72753E+12;2024-09-28T16.32.50.765;2.860;0.407;0.144;0.727;-2.134;37.500;7.622
1,72753E+12;2024-09-28T16.32.50.775;2.870;0.503;0.156;0.740;0.427;0.610;7.012
1,72753E+12;2024-09-28T16.32.50.785;2.880;0.633;0.144;0.758;2.256;-19.451;1.646
1,72753E+12;2024-09-28T16.32.50.795;2.890;0.720;0.131;0.759;3.780;-12.866;-3.415
1,72753E+12;2024-09-28T16.32.50.805;2.900;0.748;0.143;0.741;3.354;11.768;-6.280
1,72753E+12;2024-09-28T16.32.50.815;2.910;0.754;0.158;0.732;0.244;41.951;-9.390
1,72753E+12;2024-09-28T16.32.50.825;2.920;0.697;0.131;0.757;-2.073;71.707;-11.585
1,72753E+12;2024-09-28T16.32.50.835;2.930;0.495;0.138;0.758;-0.366;78.537;-7.256
1,72753E+12;2024-09-28T16.32.50.845;2.940;0.374;0.165;0.762;0.061;51.220;-2.439
1,72753E+12;2024-09-28T16.32.50.855;2.950;0.426;0.151;0.793;-0.732;6.159;-2.439
1,72753E+12;2024-09-28T16.32.50.865;2.960;0.575;0.130;0.820;0.549;-24.268;-2.683
1,72753E+12;2024-09-28T16.32.50.875;2.970;0.671;0.136;0.812;2.988;-28.171;-2.622
1,72753E+12;2024-09-28T16.32.50.885;2.980;0.718;0.158;0.802;3.049;-14.390;-3.354
1,72753E+12;2024-09-28T16.32.50.895;2.990;0.742;0.156;0.805;1.768;7.988;-5.427
1,72753E+12;2024-09-28T16.32.50.905;3.000;0.733;0.158;0.803;-0.305;31.341;-7.256
1,72753E+12;2024-09-28T16.32.50.915;3.010;0.713;0.143;0.808;-2.500;53.963;-9.573
1,72753E+12;2024-09-28T16.32.50.925;3.020;0.621;0.132;0.823;-2.561;70.915;-9.512
1,72753E+12;2024-09-28T16.32.50.935;3.030;0.502;0.143;0.828;-2.012;70.854;-4.939
1,72753E+12;2024-09-28T16.32.50.945;3.040;0.434;0.152;0.843;-2.012;48.537;-0.061
1,72753E+12;2024-09-28T16.32.50.955;3.050;0.448;0.152;0.848;-1.707;14.939;0.854
1,72753E+12;2024-09-28T16.32.50.965;3.060;0.553;0.155;0.847;-1.768;-11.463;0.183
1,72753E+12;2024-09-28T16.32.50.975;3.070;0.658;0.146;0.854;-2.683;-17.134;-1.646
1,72753E+12;2024-09-28T16.32.50.985;3.080;0.691;0.141;0.850;-3.415;-2.378;-3.902
1,72753E+12;2024-09-28T16.32.50.995;3.090;0.674;0.152;0.821;-4.573;19.573;-5.000
1,72753E+12;2024-09-28T16.32.51.005;3.100;0.689;0.159;0.813;-7.622;41.768;-6.220
1,72753E+12;2024-09-28T16.32.51.015;3.110;0.691;0.141;0.836;-9.878;67.744;-8.171
1,72753E+12;2024-09-28T16.32.51.025;3.120;0.578;0.123;0.844;-8.110;88.293;-7.073
1,72753E+12;2024-09-28T16.32.51.035;3.130;0.385;0.137;0.836;-4.573;81.585;-2.561
1,72753E+12;2024-09-28T16.32.51.045;3.140;0.305;0.163;0.828;-2.988;42.927;0.610
1,72753E+12;2024-09-28T16.32.51.055;3.150;0.456;0.160;0.837;-3.963;3.110;0.671
1,72753E+12;2024-09-28T16.32.51.065;3.160;0.647;0.141;0.870;-5.061;-6.220;-0.305
1,72753E+12;2024-09-28T16.32.51.075;3.170;0.722;0.145;0.878;-6.463;19.085;-0.915
1,72753E+12;2024-09-28T16.32.51.085;3.180;0.723;0.161;0.843;-9.756;62.195;-2.683
1,72753E+12;2024-09-28T16.32.51.095;3.190;0.756;0.166;0.833;-16.037;112.561;-5.915
1,72753E+12;2024-09-28T16.32.51.105;3.200;0.820;0.173;0.839;-23.780;173.415;-9.512
1,72753E+12;2024-09-28T16.32.51.115;3.210;0.840;0.175;0.832;-30.793;247.195;-12.744
1,72753E+12;2024-09-28T16.32.51.125;3.220;0.753;0.164;0.798;-36.585;324.634;-13.659
1,72753E+12;2024-09-28T16.32.51.135;3.230;0.646;0.175;0.733;-43.659;399.268;-12.805
1,72753E+12;2024-09-28T16.32.51.145;3.240;0.621;0.179;0.672;-54.817;477.866;-11.890
1,72753E+12;2024-09-28T16.32.51.155;3.250;0.591;0.167;0.562;-68.049;572.927;-11.280
1,72753E+12;2024-09-28T16.32.51.165;3.260;0.491;0.125;0.448;-82.195;688.963;-11.098
1,72753E+12;2024-09-28T16.32.51.175;3.270;0.214;0.087;0.320;-93.049;801.890;-8.415
1,72753E+12;2024-09-28T16.32.51.185;3.280;-0.155;0.081;0.175;-101.341;889.451;-4.390
1,72753E+12;2024-09-28T16.32.51.195;3.290;-0.413;0.062;0.075;-108.415;946.037;1.890
1,72753E+12;2024-09-28T16.32.51.205;3.300;-0.605;0.010;0.051;-112.500;973.963;16.829
1,72753E+12;2024-09-28T16.32.51.215;3.310;-0.842;0.001;0.044;-110.854;967.866;35.793
1,72753E+12;2024-09-28T16.32.51.225;3.320;-1.098;-0.013;0.039;-103.049;916.951;44.146
1,72753E+12;2024-09-28T16.32.51.235;3.330;-1.349;-0.052;0.059;-91.463;819.695;46.951
1,72753E+12;2024-09-28T16.32.51.245;3.340;-1.512;-0.048;0.085;-76.220;679.268;53.232
1,72753E+12;2024-09-28T16.32.51.255;3.350;-1.519;-0.047;0.074;-58.963;516.768;56.463
1,72753E+12;2024-09-28T16.32.51.265;3.360;-1.454;-0.053;0.069;-40.061;365.915;49.939
1,72753E+12;2024-09-28T16.32.51.275;3.370;-1.320;-0.040;0.086;-19.756;252.744;41.098
1,72753E+12;2024-09-28T16.32.51.285;3.380;-1.158;-0.013;0.090;0.000;178.293;32.866
1,72753E+12;2024-09-28T16.32.51.295;3.390;-1.031;0.036;0.044;14.451;126.768;20.732
1,72753E+12;2024-09-28T16.32.51.305;3.400;-1.029;0.071;0.001;18.415;87.988;8.476
1,72753E+12;2024-09-28T16.32.51.315;3.410;-1.084;0.089;-0.029;12.622;62.317;5.061
1,72753E+12;2024-09-28T16.32.51.325;3.420;-1.045;0.100;-0.021;2.073;48.293;9.573
1,72753E+12;2024-09-28T16.32.51.335;3.430;-0.939;0.098;0.008;-8.598;45.976;13.659
1,72753E+12;2024-09-28T16.32.51.345;3.440;-0.905;0.079;0.023;-15.549;51.890;15.244
1,72753E+12;2024-09-28T16.32.51.355;3.450;-0.993;0.064;0.014;-17.988;55.122;16.768
1,72753E+12;2024-09-28T16.32.51.365;3.460;-1.061;0.065;0.002;-17.622;47.744;18.354
1,72753E+12;2024-09-28T16.32.51.375;3.470;-1.044;0.072;0.002;-16.037;33.293;17.988
1,72753E+12;2024-09-28T16.32.51.385;3.480;-1.056;0.072;-0.011;-13.537;19.512;14.573
1,72753E+12;2024-09-28T16.32.51.395;3.490;-1.052;0.070;-0.047;-11.220;9.268;10.305
1,72753E+12;2024-09-28T16.32.51.405;3.500;-1.009;0.068;-0.046;-10.793;4.634;7.683
1,72753E+12;2024-09-28T16.32.51.415;3.510;-1.023;0.068;-0.028;-10.732;5.915;7.012
1,72753E+12;2024-09-28T16.32.51.425;3.520;-1.061;0.071;-0.030;-10.244;6.951;8.537
1,72753E+12;2024-09-28T16.32.51.435;3.530;-1.062;0.079;-0.034;-11.768;2.134;11.159
1,72753E+12;2024-09-28T16.32.51.445;3.540;-1.047;0.098;-0.013;-15.732;-4.695;12.012
1,72753E+12;2024-09-28T16.32.51.455;3.550;-1.045;0.090;0.017;-19.817;-9.939;10.366
1,72753E+12;2024-09-28T16.32.51.465;3.560;-1.041;0.082;0.012;-21.890;-15.915;7.317
1,72753E+12;2024-09-28T16.32.51.475;3.570;-1.042;0.073;-0.001;-21.524;-22.561;3.354
1,72753E+12;2024-09-28T16.32.51.485;3.580;-1.086;0.054;-0.000;-19.207;-29.634;-2.622
1,72753E+12;2024-09-28T16.32.51.495;3.590;-1.136;0.035;0.003;-14.146;-41.524;-8.415
1,72753E+12;2024-09-28T16.32.51.505;3.600;-1.137;0.008;0.016;-5.122;-61.341;-12.195
1,72753E+12;2024-09-28T16.32.51.515;3.610;-1.156;-0.000;0.028;4.085;-84.268;-15.549
1,72753E+12;2024-09-28T16.32.51.525;3.620;-1.178;0.009;0.043;12.927;-111.646;-17.866
1,72753E+12;2024-09-28T16.32.51.535;3.630;-1.213;0.020;0.076;21.220;-152.012;-18.476
1,72753E+12;2024-09-28T16.32.51.545;3.640;-1.254;0.032;0.109;27.012;-205.854;-21.707
1,72753E+12;2024-09-28T16.32.51.555;3.650;-1.271;0.041;0.129;31.585;-267.683;-25.610
1,72753E+12;2024-09-28T16.32.51.565;3.660;-1.287;0.061;0.155;34.878;-337.866;-27.805
1,72753E+12;2024-09-28T16.32.51.575;3.670;-1.257;0.071;0.181;34.390;-413.476;-31.159
1,72753E+12;2024-09-28T16.32.51.585;3.680;-1.154;0.054;0.239;33.354;-485.854;-36.341
1,72753E+12;2024-09-28T16.32.51.595;3.690;-1.000;0.047;0.324;33.171;-544.024;-42.195
1,72753E+12;2024-09-28T16.32.51.605;3.700;-0.880;0.027;0.428;35.305;-583.781;-49.573
1,72753E+12;2024-09-28T16.32.51.615;3.710;-0.906;-0.011;0.529;43.841;-619.756;-55.610
1,72753E+12;2024-09-28T16.32.51.625;3.720;-0.905;0.012;0.584;57.134;-666.402;-56.707
1,72753E+12;2024-09-28T16.32.51.635;3.730;-0.736;0.038;0.579;68.476;-708.963;-57.134
1,72753E+12;2024-09-28T16.32.51.645;3.740;-0.498;0.038;0.574;77.561;-723.659;-56.220
1,72753E+12;2024-09-28T16.32.51.655;3.750;-0.293;0.047;0.578;82.988;-701.220;-48.232
1,72753E+12;2024-09-28T16.32.51.665;3.760;-0.218;0.031;0.626;84.695;-659.756;-32.988
1,72753E+12;2024-09-28T16.32.51.675;3.770;-0.207;0.039;0.631;84.573;-625.061;-14.085
1,72753E+12;2024-09-28T16.32.51.685;3.780;-0.024;0.108;0.607;77.927;-595.610;1.585
1,72753E+12;2024-09-28T16.32.51.695;3.790;0.258;0.145;0.641;66.707;-555.549;6.829
1,72753E+12;2024-09-28T16.32.51.705;3.800;0.531;0.169;0.703;52.805;-485.732;6.890
1,72753E+12;2024-09-28T16.32.51.715;3.810;0.708;0.180;0.760;37.683;-388.841;5.427
1,72753E+12;2024-09-28T16.32.51.725;3.820;0.723;0.164;0.810;23.293;-279.207;2.378
1,72753E+12;2024-09-28T16.32.51.735;3.830;0.671;0.152;0.835;11.707;-170.061;3.171
1,72753E+12;2024-09-28T16.32.51.745;3.840;0.576;0.140;0.856;2.500;-77.927;8.720
1,72753E+12;2024-09-28T16.32.51.755;3.850;0.390;0.122;0.879;-1.890;-19.573;14.024
1,72753E+12;2024-09-28T16.32.51.765;3.860;0.174;0.106;0.899;-0.915;-6.829;17.012
1,72753E+12;2024-09-28T16.32.51.775;3.870;0.069;0.115;0.894;3.293;-38.110;20.244
1,72753E+12;2024-09-28T16.32.51.785;3.880;0.089;0.150;0.867;7.073;-96.890;19.756
1,72753E+12;2024-09-28T16.32.51.795;3.890;0.197;0.139;0.848;8.537;-152.683;11.585
1,72753E+12;2024-09-28T16.32.51.805;3.900;0.376;0.113;0.858;9.207;-176.829;2.744
1,72753E+12;2024-09-28T16.32.51.815;3.910;0.550;0.109;0.876;10.183;-160.305;1.402
1,72753E+12;2024-09-28T16.32.51.825;3.920;0.599;0.113;0.877;11.768;-118.171;1.768
1,72753E+12;2024-09-28T16.32.51.835;3.930;0.609;0.126;0.843;11.463;-68.720;0.793
1,72753E+12;2024-09-28T16.32.51.845;3.940;0.643;0.165;0.813;7.439;-20.122;-0.732
1,72753E+12;2024-09-28T16.32.51.855;3.950;0.679;0.186;0.812;-0.671;30.305;-3.110
1,72753E+12;2024-09-28T16.32.51.865;3.960;0.633;0.148;0.847;-8.720;83.293;-5.061
1,72753E+12;2024-09-28T16.32.51.875;3.970;0.402;0.103;0.857;-10.488;118.415;-1.646
1,72753E+12;2024-09-28T16.32.51.885;3.980;0.181;0.129;0.859;-8.841;111.524;3.720
1,72753E+12;2024-09-28T16.32.51.895;3.990;0.166;0.145;0.893;-8.720;72.683;3.354
1,72753E+12;2024-09-28T16.32.51.905;4.000;0.248;0.111;0.931;-6.585;32.927;-0.366
1,72753E+12;2024-09-28T16.32.51.915;4.010;0.315;0.103;0.937;-1.707;10.854;-1.707
1,72753E+12;2024-09-28T16.32.51.925;4.020;0.384;0.117;0.928;1.098;7.134;-2.744
1,72753E+12;2024-09-28T16.32.51.935;4.030;0.458;0.125;0.912;1.098;20.549;-4.451
1,72753E+12;2024-09-28T16.32.51.945;4.040;0.488;0.129;0.910;-0.061;47.012;-5.366
1,72753E+12;2024-09-28T16.32.51.955;4.050;0.450;0.119;0.913;-2.012;77.866;-5.305
1,72753E+12;2024-09-28T16.32.51.965;4.060;0.309;0.115;0.912;-2.683;94.512;-3.293
1,72753E+12;2024-09-28T16.32.51.975;4.070;0.140;0.124;0.917;-1.890;80.549;-0.427
1,72753E+12;2024-09-28T16.32.51.985;4.080;0.090;0.129;0.946;-1.159;38.841;0.366
1,72753E+12;2024-09-28T16.32.51.995;4.090;0.173;0.122;0.980;-0.366;-6.890;-1.037
1,72753E+12;2024-09-28T16.32.52.005;4.100;0.282;0.103;1.000;1.768;-32.500;-3.293
1,72753E+12;2024-09-28T16.32.52.015;4.110;0.352;0.101;1.001;4.451;-33.415;-3.049
