epoc (ms);timestamp (+0300);elapsed (s);acc_x;acc_y;acc_z;gyr_x;gyr_y;gyr_z
1,72753E+12;2024-09-28T16.40.06.675;0.000;0.025;0.204;0.974;2.134;-12.561;-0.915
1,72753E+12;2024-09-28T16.40.06.685;0.010;0.115;0.195;0.994;2.317;-9.878;-0.976
1,72753E+12;2024-09-28T16.40.06.695;0.020;0.141;0.188;0.986;1.585;2.561;-0.671
1,72753E+12;2024-09-28T16.40.06.705;0.030;0.147;0.194;0.977;-0.366;17.500;-0.671
1,72753E+12;2024-09-28T16.40.06.715;0.040;0.133;0.201;0.959;-3.049;31.098;-2.439
1,72753E+12;2024-09-28T16.40.06.725;0.050;0.136;0.202;0.955;-6.220;49.146;-4.329
1,72753E+12;2024-09-28T16.40.06.735;0.060;0.180;0.195;0.955;-9.207;75.122;-5.488
1,72753E+12;2024-09-28T16.40.06.745;0.070;0.227;0.200;0.940;-14.024;114.451;-8.171
1,72753E+12;2024-09-28T16.40.06.755;0.080;0.293;0.227;0.914;-22.927;175.793;-13.841
1,72753E+12;2024-09-28T16.40.06.765;0.090;0.408;0.234;0.877;-34.207;269.878;-21.768
1,72753E+12;2024-09-28T16.40.06.775;0.100;0.519;0.223;0.831;-44.390;394.085;-28.841
1,72753E+12;2024-09-28T16.40.06.785;0.110;0.555;0.193;0.733;-54.939;537.927;-34.329
1,72753E+12;2024-09-28T16.40.06.795;0.120;0.475;0.175;0.586;-63.537;675.793;-37.500
1,72753E+12;2024-09-28T16.40.06.805;0.130;0.235;0.119;0.404;-68.902;779.939;-39.634
1,72753E+12;2024-09-28T16.40.06.815;0.140;-0.160;0.098;0.220;-74.146;840.732;-44.573
1,72753E+12;2024-09-28T16.40.06.825;0.150;-0.528;0.076;0.085;-81.220;856.646;-44.634
1,72753E+12;2024-09-28T16.40.06.835;0.160;-0.795;0.027;0.018;-82.805;826.768;-33.476
1,72753E+12;2024-09-28T16.40.06.845;0.170;-1.030;-0.003;-0.002;-79.939;756.707;-21.707
1,72753E+12;2024-09-28T16.40.06.855;0.180;-1.223;-0.004;-0.042;-79.329;655.549;-12.805
1,72753E+12;2024-09-28T16.40.06.865;0.190;-1.403;0.007;-0.026;-75.549;539.085;-3.659
1,72753E+12;2024-09-28T16.40.06.875;0.200;-1.503;0.014;0.023;-63.354;413.110;10.671
1,72753E+12;2024-09-28T16.40.06.885;0.210;-1.519;0.014;0.104;-42.683;296.524;25.976
1,72753E+12;2024-09-28T16.40.06.895;0.220;-1.454;0.015;0.164;-20.244;205.854;30.671
1,72753E+12;2024-09-28T16.40.06.905;0.230;-1.307;-0.002;0.228;2.500;137.195;28.110
1,72753E+12;2024-09-28T16.40.06.915;0.240;-1.200;0.029;0.244;21.646;86.951;16.402
1,72753E+12;2024-09-28T16.40.06.925;0.250;-1.114;0.077;0.209;32.439;51.098;3.415
1,72753E+12;2024-09-28T16.40.06.935;0.260;-1.078;0.107;0.138;35.183;28.780;-5.732
1,72753E+12;2024-09-28T16.40.06.945;0.270;-1.097;0.120;0.047;29.146;24.146;-10.183
1,72753E+12;2024-09-28T16.40.06.955;0.280;-1.093;0.106;-0.033;17.256;26.098;-8.232
1,72753E+12;2024-09-28T16.40.06.965;0.290;-1.119;0.097;-0.067;6.524;24.390;-4.878
1,72753E+12;2024-09-28T16.40.06.975;0.300;-1.151;0.096;-0.081;-2.927;15.732;-3.598
1,72753E+12;2024-09-28T16.40.06.985;0.310;-1.118;0.083;-0.060;-10.976;3.780;-4.695
1,72753E+12;2024-09-28T16.40.06.995;0.320;-1.058;0.079;-0.012;-15.183;-8.720;-5.854
1,72753E+12;2024-09-28T16.40.07.005;0.330;-1.027;0.078;0.045;-15.061;-18.963;-6.463
1,72753E+12;2024-09-28T16.40.07.015;0.340;-1.018;0.075;0.089;-11.098;-25.549;-7.744
1,72753E+12;2024-09-28T16.40.07.025;0.350;-1.002;0.058;0.094;-5.000;-28.659;-8.720
1,72753E+12;2024-09-28T16.40.07.035;0.360;-0.991;0.044;0.074;1.159;-33.415;-9.390
1,72753E+12;2024-09-28T16.40.07.045;0.370;-1.026;0.037;0.055;6.585;-43.110;-9.817
1,72753E+12;2024-09-28T16.40.07.055;0.380;-1.070;0.037;0.039;10.610;-52.012;-10.793
1,72753E+12;2024-09-28T16.40.07.065;0.390;-1.034;0.054;0.023;11.159;-53.293;-10.976
1,72753E+12;2024-09-28T16.40.07.075;0.400;-0.953;0.075;0.028;8.476;-47.378;-10.549
1,72753E+12;2024-09-28T16.40.07.085;0.410;-0.948;0.085;0.047;4.756;-43.049;-10.183
1,72753E+12;2024-09-28T16.40.07.095;0.420;-1.023;0.079;0.056;2.805;-50.488;-8.841
1,72753E+12;2024-09-28T16.40.07.105;0.430;-1.096;0.073;0.060;2.134;-70.854;-7.073
1,72753E+12;2024-09-28T16.40.07.115;0.440;-1.163;0.066;0.061;0.061;-100.122;-4.634
1,72753E+12;2024-09-28T16.40.07.125;0.450;-1.211;0.086;0.069;-5.610;-135.549;0.793
1,72753E+12;2024-09-28T16.40.07.135;0.460;-1.200;0.080;0.108;-5.488;-179.573;6.220
1,72753E+12;2024-09-28T16.40.07.145;0.470;-1.186;0.084;0.156;-2.866;-233.171;5.610
1,72753E+12;2024-09-28T16.40.07.155;0.480;-1.198;0.096;0.207;1.768;-293.354;1.098
1,72753E+12;2024-09-28T16.40.07.165;0.490;-1.201;0.083;0.245;8.232;-348.659;-1.768
1,72753E+12;2024-09-28T16.40.07.175;0.500;-1.115;0.081;0.286;13.537;-389.451;-0.305
1,72753E+12;2024-09-28T16.40.07.185;0.510;-0.976;0.072;0.332;16.463;-421.402;2.134
1,72753E+12;2024-09-28T16.40.07.195;0.520;-0.908;0.078;0.388;16.707;-444.207;0.915
1,72753E+12;2024-09-28T16.40.07.205;0.530;-0.848;0.064;0.444;20.732;-454.207;-2.866
1,72753E+12;2024-09-28T16.40.07.215;0.540;-0.777;0.034;0.481;25.610;-462.927;0.183
1,72753E+12;2024-09-28T16.40.07.225;0.550;-0.784;0.011;0.526;31.524;-488.049;7.317
1,72753E+12;2024-09-28T16.40.07.235;0.560;-0.846;0.030;0.568;36.402;-514.756;5.732
1,72753E+12;2024-09-28T16.40.07.245;0.570;-0.743;0.060;0.582;38.049;-528.598;1.890
1,72753E+12;2024-09-28T16.40.07.255;0.580;-0.557;0.055;0.625;40.549;-534.390;7.439
1,72753E+12;2024-09-28T16.40.07.265;0.590;-0.478;0.044;0.668;43.902;-537.134;14.024
1,72753E+12;2024-09-28T16.40.07.275;0.600;-0.415;0.087;0.681;42.622;-530.488;12.866
1,72753E+12;2024-09-28T16.40.07.285;0.610;-0.238;0.112;0.681;37.561;-504.390;11.768
1,72753E+12;2024-09-28T16.40.07.295;0.620;-0.021;0.121;0.714;32.012;-453.293;12.134
1,72753E+12;2024-09-28T16.40.07.305;0.630;0.161;0.127;0.754;24.329;-376.341;12.012
1,72753E+12;2024-09-28T16.40.07.315;0.640;0.314;0.136;0.794;13.537;-274.756;11.098
1,72753E+12;2024-09-28T16.40.07.325;0.650;0.473;0.144;0.833;2.195;-160.427;10.793
1,72753E+12;2024-09-28T16.40.07.335;0.660;0.535;0.126;0.882;-3.110;-71.402;14.512
1,72753E+12;2024-09-28T16.40.07.345;0.670;0.271;0.073;0.905;-2.317;-53.902;22.134
1,72753E+12;2024-09-28T16.40.07.355;0.680;-0.236;0.068;0.893;-3.537;-120.183;27.134
1,72753E+12;2024-09-28T16.40.07.365;0.690;-0.499;0.127;0.867;-6.768;-237.439;22.073
1,72753E+12;2024-09-28T16.40.07.375;0.700;-0.378;0.158;0.865;-6.646;-337.073;10.488
1,72753E+12;2024-09-28T16.40.07.385;0.710;-0.026;0.135;0.878;-1.829;-372.012;1.280
1,72753E+12;2024-09-28T16.40.07.395;0.720;0.344;0.104;0.900;3.720;-342.561;-1.098
1,72753E+12;2024-09-28T16.40.07.405;0.730;0.569;0.091;0.906;8.659;-276.280;-1.220
1,72753E+12;2024-09-28T16.40.07.415;0.740;0.656;0.104;0.898;9.939;-197.500;-2.561
1,72753E+12;2024-09-28T16.40.07.425;0.750;0.692;0.131;0.856;5.793;-120.366;-3.963
1,72753E+12;2024-09-28T16.40.07.435;0.760;0.702;0.154;0.831;-1.646;-54.817;-3.902
1,72753E+12;2024-09-28T16.40.07.445;0.770;0.662;0.162;0.822;-9.146;-6.463;-4.329
1,72753E+12;2024-09-28T16.40.07.455;0.780;0.594;0.158;0.818;-14.756;26.098;-5.000
1,72753E+12;2024-09-28T16.40.07.465;0.790;0.554;0.144;0.828;-16.768;43.049;-3.963
1,72753E+12;2024-09-28T16.40.07.475;0.800;0.456;0.122;0.844;-16.098;45.000;-0.915
1,72753E+12;2024-09-28T16.40.07.485;0.810;0.358;0.122;0.868;-14.451;37.805;1.220
1,72753E+12;2024-09-28T16.40.07.495;0.820;0.367;0.123;0.883;-11.524;31.646;1.159
1,72753E+12;2024-09-28T16.40.07.505;0.830;0.413;0.115;0.900;-8.110;36.037;-1.159
1,72753E+12;2024-09-28T16.40.07.515;0.840;0.445;0.107;0.914;-5.366;51.159;-4.451
1,72753E+12;2024-09-28T16.40.07.525;0.850;0.461;0.104;0.915;-4.268;71.890;-6.768
1,72753E+12;2024-09-28T16.40.07.535;0.860;0.460;0.111;0.902;-4.329;88.598;-7.073
1,72753E+12;2024-09-28T16.40.07.545;0.870;0.381;0.099;0.896;-3.659;82.256;-3.476
1,72753E+12;2024-09-28T16.40.07.555;0.880;0.200;0.094;0.896;-3.476;46.280;-0.793
1,72753E+12;2024-09-28T16.40.07.565;0.890;0.112;0.114;0.904;-3.537;-0.732;-2.500
1,72753E+12;2024-09-28T16.40.07.575;0.900;0.206;0.116;0.920;-1.890;-32.683;-4.939
1,72753E+12;2024-09-28T16.40.07.585;0.910;0.350;0.107;0.943;0.366;-35.732;-5.183
1,72753E+12;2024-09-28T16.40.07.595;0.920;0.446;0.101;0.951;2.500;-17.622;-4.085
1,72753E+12;2024-09-28T16.40.07.605;0.930;0.466;0.100;0.939;3.720;7.378;-3.293
1,72753E+12;2024-09-28T16.40.07.615;0.940;0.439;0.108;0.918;3.049;30.732;-2.500
1,72753E+12;2024-09-28T16.40.07.625;0.950;0.409;0.112;0.901;1.402;48.476;-1.951
1,72753E+12;2024-09-28T16.40.07.635;0.960;0.365;0.102;0.896;0.244;51.829;0.427
1,72753E+12;2024-09-28T16.40.07.645;0.970;0.260;0.100;0.901;-0.610;37.500;1.159
1,72753E+12;2024-09-28T16.40.07.655;0.980;0.211;0.104;0.910;-0.427;14.390;-1.585
1,72753E+12;2024-09-28T16.40.07.665;0.990;0.238;0.094;0.922;0.854;-2.256;-4.451
1,72753E+12;2024-09-28T16.40.07.675;1.000;0.298;0.095;0.931;1.768;-2.683;-5.793
1,72753E+12;2024-09-28T16.40.07.685;1.010;0.377;0.106;0.931;0.427;16.829;-5.732
1,72753E+12;2024-09-28T16.40.07.695;1.020;0.478;0.138;0.917;-3.537;61.951;-6.768
1,72753E+12;2024-09-28T16.40.07.705;1.030;0.614;0.141;0.919;-7.622;127.927;-7.500
1,72753E+12;2024-09-28T16.40.07.715;1.040;0.658;0.142;0.907;-13.049;209.085;-8.049
1,72753E+12;2024-09-28T16.40.07.725;1.050;0.668;0.162;0.882;-19.695;301.341;-8.902
1,72753E+12;2024-09-28T16.40.07.735;1.060;0.681;0.167;0.843;-26.402;403.293;-9.085
1,72753E+12;2024-09-28T16.40.07.745;1.070;0.643;0.175;0.773;-35.976;520.488;-8.659
1,72753E+12;2024-09-28T16.40.07.755;1.080;0.657;0.193;0.687;-46.037;658.902;-7.622
1,72753E+12;2024-09-28T16.40.07.765;1.090;0.681;0.169;0.588;-50.793;812.195;-4.756
1,72753E+12;2024-09-28T16.40.07.775;1.100;0.573;0.106;0.409;-46.768;955.549;-1.768
1,72753E+12;2024-09-28T16.40.07.785;1.110;0.267;0.051;0.119;-41.037;1.059.390;-1.402
1,72753E+12;2024-09-28T16.40.07.795;1.120;-0.135;0.042;-0.228;-45.427;1.083.841;-1.463
1,72753E+12;2024-09-28T16.40.07.805;1.130;-0.684;0.039;-0.499;-57.134;1.013.476;-6.098
1,72753E+12;2024-09-28T16.40.07.815;1.140;-1.333;-0.043;-0.571;-67.866;860.915;-9.268
1,72753E+12;2024-09-28T16.40.07.825;1.150;-1.769;-0.098;-0.434;-69.817;661.402;-3.902
1,72753E+12;2024-09-28T16.40.07.835;1.160;-1.952;-0.103;-0.193;-59.756;461.098;11.220
1,72753E+12;2024-09-28T16.40.07.845;1.170;-1.860;-0.065;-0.009;-40.366;299.756;29.512
1,72753E+12;2024-09-28T16.40.07.855;1.180;-1.536;0.010;0.154;-18.476;200.244;35.488
1,72753E+12;2024-09-28T16.40.07.865;1.190;-1.216;0.013;0.252;2.378;159.695;29.573
1,72753E+12;2024-09-28T16.40.07.875;1.200;-1.045;0.017;0.244;17.500;144.207;19.817
1,72753E+12;2024-09-28T16.40.07.885;1.210;-1.063;0.068;0.178;26.220;121.890;8.110
1,72753E+12;2024-09-28T16.40.07.895;1.220;-1.194;0.062;0.107;30.549;83.293;-2.073
1,72753E+12;2024-09-28T16.40.07.905;1.230;-1.325;0.052;0.020;29.390;40.427;-8.841
1,72753E+12;2024-09-28T16.40.07.915;1.240;-1.336;0.077;-0.069;21.280;10.854;-9.573
1,72753E+12;2024-09-28T16.40.07.925;1.250;-1.246;0.090;-0.101;7.988;0.549;-3.537
1,72753E+12;2024-09-28T16.40.07.935;1.260;-1.133;0.114;-0.071;-5.427;3.841;0.183
1,72753E+12;2024-09-28T16.40.07.945;1.270;-1.029;0.126;-0.032;-14.390;8.110;-1.159
1,72753E+12;2024-09-28T16.40.07.955;1.280;-1.028;0.110;0.020;-19.573;5.244;-3.963
1,72753E+12;2024-09-28T16.40.07.965;1.290;-1.092;0.086;0.078;-18.537;-5.305;-3.415
1,72753E+12;2024-09-28T16.40.07.975;1.300;-1.059;0.065;0.126;-10.915;-14.939;-2.134
1,72753E+12;2024-09-28T16.40.07.985;1.310;-0.965;0.060;0.127;-2.927;-16.890;-4.817
1,72753E+12;2024-09-28T16.40.07.995;1.320;-0.938;0.040;0.117;3.963;-14.146;-7.195
1,72753E+12;2024-09-28T16.40.08.005;1.330;-0.985;0.029;0.092;10.366;-13.049;-8.171
1,72753E+12;2024-09-28T16.40.08.015;1.340;-1.010;0.040;0.049;13.293;-13.415;-8.232
1,72753E+12;2024-09-28T16.40.08.025;1.350;-1.021;0.050;0.039;12.988;-15.671;-7.866
1,72753E+12;2024-09-28T16.40.08.035;1.360;-1.064;0.062;0.047;12.439;-22.439;-7.439
1,72753E+12;2024-09-28T16.40.08.045;1.370;-1.113;0.069;0.048;11.524;-32.744;-7.500
1,72753E+12;2024-09-28T16.40.08.055;1.380;-1.112;0.076;0.053;9.024;-42.378;-8.171
1,72753E+12;2024-09-28T16.40.08.065;1.390;-1.088;0.080;0.077;6.768;-52.500;-8.354
1,72753E+12;2024-09-28T16.40.08.075;1.400;-1.094;0.080;0.096;4.268;-68.476;-8.598
1,72753E+12;2024-09-28T16.40.08.085;1.410;-1.124;0.068;0.105;3.415;-92.256;-7.927
1,72753E+12;2024-09-28T16.40.08.095;1.420;-1.128;0.062;0.116;3.354;-122.195;-7.561
1,72753E+12;2024-09-28T16.40.08.105;1.430;-1.130;0.068;0.140;4.146;-155.488;-7.805
1,72753E+12;2024-09-28T16.40.08.115;1.440;-1.129;0.061;0.167;6.585;-193.963;-8.049
1,72753E+12;2024-09-28T16.40.08.125;1.450;-1.136;0.056;0.198;10.305;-237.256;-7.500
1,72753E+12;2024-09-28T16.40.08.135;1.460;-1.129;0.052;0.237;15.061;-279.878;-7.866
1,72753E+12;2024-09-28T16.40.08.145;1.470;-1.090;0.049;0.268;19.390;-317.805;-7.622
1,72753E+12;2024-09-28T16.40.08.155;1.480;-1.026;0.049;0.297;22.012;-346.463;-6.159
1,72753E+12;2024-09-28T16.40.08.165;1.490;-0.933;0.046;0.333;22.927;-360.610;-4.878
1,72753E+12;2024-09-28T16.40.08.175;1.500;-0.817;0.042;0.385;22.012;-358.476;-4.878
1,72753E+12;2024-09-28T16.40.08.185;1.510;-0.719;0.052;0.436;18.232;-344.939;-5.000
1,72753E+12;2024-09-28T16.40.08.195;1.520;-0.652;0.053;0.484;15.305;-335.366;-1.463
1,72753E+12;2024-09-28T16.40.08.205;1.530;-0.696;0.020;0.530;17.195;-347.317;5.488
1,72753E+12;2024-09-28T16.40.08.215;1.540;-0.802;0.026;0.551;21.402;-374.939;6.646
1,72753E+12;2024-09-28T16.40.08.225;1.550;-0.806;0.024;0.561;24.817;-410.366;9.451
1,72753E+12;2024-09-28T16.40.08.235;1.560;-0.767;0.012;0.597;30.061;-450.732;16.463
1,72753E+12;2024-09-28T16.40.08.245;1.570;-0.724;0.037;0.606;32.683;-473.232;15.061
1,72753E+12;2024-09-28T16.40.08.255;1.580;-0.506;0.081;0.605;28.537;-453.049;11.220
1,72753E+12;2024-09-28T16.40.08.265;1.590;-0.159;0.094;0.664;19.817;-391.829;12.256
1,72753E+12;2024-09-28T16.40.08.275;1.600;0.065;0.095;0.775;11.829;-308.049;11.951
1,72753E+12;2024-09-28T16.40.08.285;1.610;0.094;0.085;0.856;6.524;-225.000;8.232
1,72753E+12;2024-09-28T16.40.08.295;1.620;0.006;0.063;0.888;2.622;-159.756;8.049
1,72753E+12;2024-09-28T16.40.08.305;1.630;-0.099;0.053;0.895;0.976;-124.695;11.585
1,72753E+12;2024-09-28T16.40.08.315;1.640;-0.245;0.018;0.892;1.585;-130.793;18.171
1,72753E+12;2024-09-28T16.40.08.325;1.650;-0.425;0.024;0.894;0.366;-168.841;19.756
1,72753E+12;2024-09-28T16.40.08.335;1.660;-0.420;0.078;0.902;-0.610;-212.195;11.890
1,72753E+12;2024-09-28T16.40.08.345;1.670;-0.229;0.087;0.929;0.488;-231.951;2.866
1,72753E+12;2024-09-28T16.40.08.355;1.680;-0.057;0.074;0.963;2.012;-216.768;-1.951
1,72753E+12;2024-09-28T16.40.08.365;1.690;0.059;0.066;0.979;3.476;-177.805;-1.463
1,72753E+12;2024-09-28T16.40.08.375;1.700;0.128;0.070;0.972;4.024;-129.695;0.671
1,72753E+12;2024-09-28T16.40.08.385;1.710;0.162;0.085;0.954;2.622;-82.012;1.402
1,72753E+12;2024-09-28T16.40.08.395;1.720;0.168;0.092;0.943;-0.366;-40.671;1.951
1,72753E+12;2024-09-28T16.40.08.405;1.730;0.147;0.094;0.948;-3.780;-8.049;1.707
1,72753E+12;2024-09-28T16.40.08.415;1.740;0.125;0.095;0.959;-5.854;16.890;-0.488
1,72753E+12;2024-09-28T16.40.08.425;1.750;0.096;0.078;0.970;-5.366;30.488;-0.732
1,72753E+12;2024-09-28T16.40.08.435;1.760;0.009;0.070;0.976;-3.659;24.939;1.524
1,72753E+12;2024-09-28T16.40.08.445;1.770;-0.103;0.082;0.959;-3.171;5.061;1.951
1,72753E+12;2024-09-28T16.40.08.455;1.780;-0.104;0.100;0.948;-3.598;-12.805;-0.610
1,72753E+12;2024-09-28T16.40.08.465;1.790;-0.018;0.102;0.960;-4.146;-14.634;-1.707
1,72753E+12;2024-09-28T16.40.08.475;1.800;0.054;0.098;0.983;-3.780;-2.256;-0.671
1,72753E+12;2024-09-28T16.40.08.485;1.810;0.084;0.098;0.996;-2.683;15.610;0.183
1,72753E+12;2024-09-28T16.40.08.495;1.820;0.085;0.098;1.003;-1.159;32.927;0.305
1,72753E+12;2024-09-28T16.40.08.505;1.830;0.053;0.082;1.011;1.646;37.744;2.195
1,72753E+12;2024-09-28T16.40.08.515;1.840;-0.062;0.063;1.003;4.939;16.037;4.512
1,72753E+12;2024-09-28T16.40.08.525;1.850;-0.215;0.069;0.994;6.524;-27.561;3.476
1,72753E+12;2024-09-28T16.40.08.535;1.860;-0.225;0.082;0.994;7.927;-73.902;-1.159
1,72753E+12;2024-09-28T16.40.08.545;1.870;-0.133;0.084;1.001;8.963;-101.524;-5.427
1,72753E+12;2024-09-28T16.40.08.555;1.880;-0.020;0.087;1.009;8.598;-101.280;-6.098
1,72753E+12;2024-09-28T16.40.08.565;1.890;0.108;0.093;1.009;7.744;-80.671;-4.451
1,72753E+12;2024-09-28T16.40.08.575;1.900;0.172;0.096;1.004;6.524;-51.402;-3.780
1,72753E+12;2024-09-28T16.40.08.585;1.910;0.164;0.093;0.986;4.390;-22.256;-3.720
1,72753E+12;2024-09-28T16.40.08.595;1.920;0.151;0.096;0.964;1.220;3.902;-3.354
1,72753E+12;2024-09-28T16.40.08.605;1.930;0.152;0.099;0.952;-2.012;23.171;-2.134
1,72753E+12;2024-09-28T16.40.08.615;1.940;0.102;0.091;0.952;-3.780;25.854;-0.366
1,72753E+12;2024-09-28T16.40.08.625;1.950;0.003;0.090;0.954;-4.268;13.110;-1.585
1,72753E+12;2024-09-28T16.40.08.635;1.960;-0.024;0.087;0.969;-3.720;-1.341;-3.841
1,72753E+12;2024-09-28T16.40.08.645;1.970;0.031;0.078;0.984;-1.890;-6.220;-4.085
1,72753E+12;2024-09-28T16.40.08.655;1.980;0.099;0.087;0.987;-0.488;-0.061;-4.390
1,72753E+12;2024-09-28T16.40.08.665;1.990;0.128;0.090;0.982;-0.610;14.329;-5.000
1,72753E+12;2024-09-28T16.40.08.675;2.000;0.141;0.103;0.957;-4.085;42.683;-6.463
1,72753E+12;2024-09-28T16.40.08.685;2.010;0.240;0.130;0.928;-10.427;95.122;-7.683
1,72753E+12;2024-09-28T16.40.08.695;2.020;0.362;0.106;0.934;-15.488;163.110;-6.646
1,72753E+12;2024-09-28T16.40.08.705;2.030;0.341;0.097;0.922;-20.732;237.744;-5.854
1,72753E+12;2024-09-28T16.40.08.715;2.040;0.286;0.109;0.891;-25.915;310.610;-4.085
1,72753E+12;2024-09-28T16.40.08.725;2.050;0.239;0.102;0.853;-30.854;379.329;0.000
1,72753E+12;2024-09-28T16.40.08.735;2.060;0.151;0.113;0.789;-38.171;452.134;1.037
1,72753E+12;2024-09-28T16.40.08.745;2.070;0.118;0.120;0.711;-47.866;536.951;0.671
1,72753E+12;2024-09-28T16.40.08.755;2.080;0.086;0.075;0.633;-54.512;618.720;5.244
1,72753E+12;2024-09-28T16.40.08.765;2.090;-0.105;0.067;0.537;-56.768;683.963;9.451
1,72753E+12;2024-09-28T16.40.08.775;2.100;-0.344;0.064;0.432;-57.744;722.744;14.146
1,72753E+12;2024-09-28T16.40.08.785;2.110;-0.529;0.041;0.329;-58.171;728.415;21.585
1,72753E+12;2024-09-28T16.40.08.795;2.120;-0.732;0.016;0.255;-55.549;706.768;26.951
1,72753E+12;2024-09-28T16.40.08.805;2.130;-0.892;-0.014;0.144;-57.378;651.220;28.354
1,72753E+12;2024-09-28T16.40.08.815;2.140;-1.096;-0.037;0.070;-57.439;578.110;27.988
1,72753E+12;2024-09-28T16.40.08.825;2.150;-1.210;-0.040;0.045;-51.524;506.402;28.476
1,72753E+12;2024-09-28T16.40.08.835;2.160;-1.181;-0.045;-0.004;-43.293;430.549;36.402
1,72753E+12;2024-09-28T16.40.08.845;2.170;-1.276;-0.013;-0.033;-31.402;343.354;39.512
1,72753E+12;2024-09-28T16.40.08.855;2.180;-1.385;-0.003;-0.011;-19.390;255.122;38.963
1,72753E+12;2024-09-28T16.40.08.865;2.190;-1.372;0.022;0.050;-9.939;174.756;37.073
1,72753E+12;2024-09-28T16.40.08.875;2.200;-1.294;0.047;0.113;-1.890;112.622;29.939
1,72753E+12;2024-09-28T16.40.08.885;2.210;-1.199;0.074;0.148;3.476;75.000;19.756
1,72753E+12;2024-09-28T16.40.08.895;2.220;-1.125;0.088;0.127;3.354;55.732;13.476
1,72753E+12;2024-09-28T16.40.08.905;2.230;-1.129;0.098;0.078;0.671;41.707;10.122
1,72753E+12;2024-09-28T16.40.08.915;2.240;-1.178;0.093;0.050;0.305;21.890;5.305
1,72753E+12;2024-09-28T16.40.08.925;2.250;-1.204;0.075;0.055;2.500;0.793;-1.159
1,72753E+12;2024-09-28T16.40.08.935;2.260;-1.151;0.074;0.031;3.720;-8.232;-6.220
1,72753E+12;2024-09-28T16.40.08.945;2.270;-1.046;0.069;0.002;1.524;-6.646;-7.805
1,72753E+12;2024-09-28T16.40.08.955;2.280;-0.995;0.061;0.009;-0.366;-4.390;-9.085
1,72753E+12;2024-09-28T16.40.08.965;2.290;-1.019;0.051;0.019;1.098;-8.476;-9.756
1,72753E+12;2024-09-28T16.40.08.975;2.300;-1.042;0.047;0.027;4.878;-16.951;-8.963
1,72753E+12;2024-09-28T16.40.08.985;2.310;-1.022;0.052;0.034;7.683;-22.317;-9.268
1,72753E+12;2024-09-28T16.40.08.995;2.320;-0.991;0.057;0.037;8.415;-22.317;-9.512
1,72753E+12;2024-09-28T16.40.09.005;2.330;-0.983;0.068;0.041;8.171;-22.622;-7.988
1,72753E+12;2024-09-28T16.40.09.015;2.340;-1.009;0.071;0.039;7.500;-27.378;-6.280
1,72753E+12;2024-09-28T16.40.09.025;2.350;-1.046;0.071;0.039;5.793;-35.610;-4.390
1,72753E+12;2024-09-28T16.40.09.035;2.360;-1.059;0.071;0.042;3.720;-46.402;-1.646
1,72753E+12;2024-09-28T16.40.09.045;2.370;-1.070;0.074;0.058;0.854;-60.854;0.427
1,72753E+12;2024-09-28T16.40.09.055;2.380;-1.087;0.074;0.090;-1.402;-83.354;1.037
1,72753E+12;2024-09-28T16.40.09.065;2.390;-1.123;0.079;0.129;-0.915;-117.744;-0.854
1,72753E+12;2024-09-28T16.40.09.075;2.400;-1.180;0.073;0.158;2.500;-165.183;-5.183
1,72753E+12;2024-09-28T16.40.09.085;2.410;-1.223;0.067;0.187;8.537;-222.500;-11.646
1,72753E+12;2024-09-28T16.40.09.095;2.420;-1.238;0.061;0.207;15.427;-281.646;-18.171
1,72753E+12;2024-09-28T16.40.09.105;2.430;-1.202;0.053;0.232;22.561;-335.793;-23.354
1,72753E+12;2024-09-28T16.40.09.115;2.440;-1.139;0.043;0.259;28.841;-382.073;-27.622
1,72753E+12;2024-09-28T16.40.09.125;2.450;-1.083;0.034;0.296;33.963;-419.817;-31.098
1,72753E+12;2024-09-28T16.40.09.135;2.460;-1.027;0.028;0.336;35.061;-448.720;-32.683
1,72753E+12;2024-09-28T16.40.09.145;2.470;-0.971;0.043;0.371;30.610;-474.329;-31.220
1,72753E+12;2024-09-28T16.40.09.155;2.480;-0.930;0.023;0.439;33.476;-495.854;-27.256
1,72753E+12;2024-09-28T16.40.09.165;2.490;-0.862;-0.002;0.496;39.329;-514.634;-22.683
1,72753E+12;2024-09-28T16.40.09.175;2.500;-0.774;0.012;0.529;43.354;-525.427;-22.195
1,72753E+12;2024-09-28T16.40.09.185;2.510;-0.677;0.017;0.566;45.122;-520.549;-23.476
1,72753E+12;2024-09-28T16.40.09.195;2.520;-0.547;0.023;0.602;44.634;-495.610;-21.768
1,72753E+12;2024-09-28T16.40.09.205;2.530;-0.404;0.023;0.631;41.220;-451.098;-16.402
1,72753E+12;2024-09-28T16.40.09.215;2.540;-0.268;0.034;0.677;33.537;-391.768;-8.720
1,72753E+12;2024-09-28T16.40.09.225;2.550;-0.143;0.055;0.729;24.268;-325.488;-2.927
1,72753E+12;2024-09-28T16.40.09.235;2.560;-0.054;0.060;0.781;16.463;-265.549;1.524
1,72753E+12;2024-09-28T16.40.09.245;2.570;-0.079;0.048;0.856;13.598;-233.049;6.280
1,72753E+12;2024-09-28T16.40.09.255;2.580;-0.236;0.034;0.898;14.451;-235.061;8.354
1,72753E+12;2024-09-28T16.40.09.265;2.590;-0.345;0.058;0.883;12.561;-249.329;5.427
1,72753E+12;2024-09-28T16.40.09.275;2.600;-0.235;0.079;0.875;8.293;-248.902;4.024
1,72753E+12;2024-09-28T16.40.09.285;2.610;-0.013;0.091;0.890;2.988;-221.524;4.939
1,72753E+12;2024-09-28T16.40.09.295;2.620;0.165;0.109;0.913;-3.110;-173.780;2.134
1,72753E+12;2024-09-28T16.40.09.305;2.630;0.212;0.102;0.929;-9.695;-119.817;-1.280
1,72753E+12;2024-09-28T16.40.09.315;2.640;0.206;0.096;0.931;-14.634;-71.463;-3.171
1,72753E+12;2024-09-28T16.40.09.325;2.650;0.174;0.090;0.938;-16.890;-34.573;-3.171
1,72753E+12;2024-09-28T16.40.09.335;2.660;0.102;0.058;0.942;-16.707;-16.280;-0.610
1,72753E+12;2024-09-28T16.40.09.345;2.670;0.022;0.052;0.929;-15.366;-16.890;0.305
1,72753E+12;2024-09-28T16.40.09.355;2.680;-0.012;0.063;0.924;-13.537;-27.500;-0.915
1,72753E+12;2024-09-28T16.40.09.365;2.690;0.002;0.055;0.930;-10.915;-37.317;-2.256
1,72753E+12;2024-09-28T16.40.09.375;2.700;0.046;0.056;0.943;-7.744;-38.659;-4.695
1,72753E+12;2024-09-28T16.40.09.385;2.710;0.104;0.055;0.953;-5.183;-27.073;-6.585
1,72753E+12;2024-09-28T16.40.09.395;2.720;0.152;0.059;0.960;-2.927;-4.390;-7.378
1,72753E+12;2024-09-28T16.40.09.405;2.730;0.176;0.061;0.958;-1.341;20.610;-6.220
1,72753E+12;2024-09-28T16.40.09.415;2.740;0.135;0.059;0.948;0.244;32.744;-3.476
1,72753E+12;2024-09-28T16.40.09.425;2.750;0.034;0.059;0.941;2.256;21.707;-1.524
1,72753E+12;2024-09-28T16.40.09.435;2.760;-0.068;0.061;0.933;3.598;-2.561;-2.439
1,72753E+12;2024-09-28T16.40.09.445;2.770;-0.058;0.061;0.951;5.244;-24.573;-3.415
1,72753E+12;2024-09-28T16.40.09.455;2.780;0.024;0.061;0.973;7.012;-35.000;-3.537
1,72753E+12;2024-09-28T16.40.09.465;2.790;0.080;0.072;0.988;7.378;-32.561;-3.902
1,72753E+12;2024-09-28T16.40.09.475;2.800;0.115;0.075;0.987;6.220;-19.817;-3.415
1,72753E+12;2024-09-28T16.40.09.485;2.810;0.151;0.075;0.984;4.451;1.707;-2.866
1,72753E+12;2024-09-28T16.40.09.495;2.820;0.178;0.073;0.986;2.805;25.000;-1.890
1,72753E+12;2024-09-28T16.40.09.505;2.830;0.141;0.064;0.978;2.073;39.268;-0.183
1,72753E+12;2024-09-28T16.40.09.515;2.840;0.053;0.057;0.968;2.134;36.220;2.134
1,72753E+12;2024-09-28T16.40.09.525;2.850;-0.024;0.055;0.972;3.415;15.793;2.988
1,72753E+12;2024-09-28T16.40.09.535;2.860;-0.068;0.059;0.983;5.183;-9.817;1.280
1,72753E+12;2024-09-28T16.40.09.545;2.870;-0.042;0.053;0.993;6.585;-26.220;0.061
1,72753E+12;2024-09-28T16.40.09.555;2.880;0.029;0.048;1.001;7.439;-28.476;-0.427
1,72753E+12;2024-09-28T16.40.09.565;2.890;0.067;0.049;1.012;7.561;-20.427;-0.427
1,72753E+12;2024-09-28T16.40.09.575;2.900;0.088;0.050;1.003;6.768;-7.195;-0.915
1,72753E+12;2024-09-28T16.40.09.585;2.910;0.114;0.062;0.992;4.939;8.415;-2.622
1,72753E+12;2024-09-28T16.40.09.595;2.920;0.110;0.066;0.989;3.537;19.024;-2.622
1,72753E+12;2024-09-28T16.40.09.605;2.930;0.056;0.061;0.982;3.476;14.207;-0.610
1,72753E+12;2024-09-28T16.40.09.615;2.940;-0.024;0.067;0.983;3.780;-5.000;-0.244
1,72753E+12;2024-09-28T16.40.09.625;2.950;-0.045;0.065;0.999;5.061;-28.841;-0.610
1,72753E+12;2024-09-28T16.40.09.635;2.960;-0.023;0.061;1.014;7.439;-49.756;0.061
1,72753E+12;2024-09-28T16.40.09.645;2.970;0.004;0.062;1.012;8.780;-62.988;-0.671
1,72753E+12;2024-09-28T16.40.09.655;2.980;0.059;0.070;1.008;8.780;-63.780;-2.561
1,72753E+12;2024-09-28T16.40.09.665;2.990;0.134;0.073;1.010;8.049;-51.098;-3.415
1,72753E+12;2024-09-28T16.40.09.675;3.000;0.188;0.077;1.002;6.159;-30.061;-4.207
1,72753E+12;2024-09-28T16.40.09.685;3.010;0.214;0.084;0.987;3.354;-4.146;-6.585
1,72753E+12;2024-09-28T16.40.09.695;3.020;0.221;0.082;0.982;0.427;23.171;-7.012
1,72753E+12;2024-09-28T16.40.09.705;3.030;0.222;0.087;0.971;-2.622;49.390;-5.732
1,72753E+12;2024-09-28T16.40.09.715;3.040;0.219;0.098;0.958;-6.707;77.317;-4.146
1,72753E+12;2024-09-28T16.40.09.725;3.050;0.239;0.104;0.950;-12.195;110.671;-2.683
1,72753E+12;2024-09-28T16.40.09.735;3.060;0.270;0.123;0.930;-22.134;164.939;-4.512
1,72753E+12;2024-09-28T16.40.09.745;3.070;0.408;0.151;0.894;-37.378;263.780;-10.488
1,72753E+12;2024-09-28T16.40.09.755;3.080;0.636;0.140;0.860;-53.598;420.366;-16.098
1,72753E+12;2024-09-28T16.40.09.765;3.090;0.760;0.088;0.778;-67.073;613.659;-13.415
1,72753E+12;2024-09-28T16.40.09.775;3.100;0.660;0.052;0.583;-75.793;801.159;-3.476
1,72753E+12;2024-09-28T16.40.09.785;3.110;0.324;0.061;0.296;-83.659;945.549;7.927
1,72753E+12;2024-09-28T16.40.09.795;3.120;-0.126;0.065;0.023;-94.329;1.028.110;17.866
1,72753E+12;2024-09-28T16.40.09.805;3.130;-0.518;0.034;-0.153;-102.744;1.040.488;26.463
1,72753E+12;2024-09-28T16.40.09.815;3.140;-0.880;-0.027;-0.287;-111.951;963.354;34.878
1,72753E+12;2024-09-28T16.40.09.825;3.150;-1.372;-0.044;-0.314;-110.671;789.207;46.402
1,72753E+12;2024-09-28T16.40.09.835;3.160;-1.828;-0.128;-0.134;-84.634;559.207;54.573
1,72753E+12;2024-09-28T16.40.09.845;3.170;-1.899;-0.113;0.035;-48.720;334.451;60.061
1,72753E+12;2024-09-28T16.40.09.855;3.180;-1.627;-0.073;0.157;-9.512;179.512;52.195
1,72753E+12;2024-09-28T16.40.09.865;3.190;-1.231;-0.074;0.230;24.451;119.817;33.415
1,72753E+12;2024-09-28T16.40.09.875;3.200;-0.952;-0.044;0.230;44.085;122.439;16.707
1,72753E+12;2024-09-28T16.40.09.885;3.210;-0.933;0.021;0.193;52.378;127.622;5.000
1,72753E+12;2024-09-28T16.40.09.895;3.220;-1.061;0.055;0.131;52.378;97.317;-0.488
1,72753E+12;2024-09-28T16.40.09.905;3.230;-1.263;0.060;0.014;41.341;40.732;-2.134
1,72753E+12;2024-09-28T16.40.09.915;3.240;-1.376;0.083;-0.088;19.695;-0.793;-0.915
1,72753E+12;2024-09-28T16.40.09.925;3.250;-1.265;0.112;-0.073;-2.927;-7.073;4.878
1,72753E+12;2024-09-28T16.40.09.935;3.260;-1.037;0.131;0.045;-15.000;10.061;5.366
1,72753E+12;2024-09-28T16.40.09.945;3.270;-0.954;0.103;0.103;-18.476;21.463;-0.061
1,72753E+12;2024-09-28T16.40.09.955;3.280;-1.048;0.063;0.108;-16.829;12.805;-4.817
1,72753E+12;2024-09-28T16.40.09.965;3.290;-1.101;0.030;0.104;-11.707;-9.512;-6.951
1,72753E+12;2024-09-28T16.40.09.975;3.300;-1.097;0.005;0.109;-4.207;-32.439;-8.902
1,72753E+12;2024-09-28T16.40.09.985;3.310;-1.056;0.001;0.104;3.537;-43.902;-10.305
1,72753E+12;2024-09-28T16.40.09.995;3.320;-0.988;0.002;0.094;8.841;-42.927;-9.085
1,72753E+12;2024-09-28T16.40.10.005;3.330;-0.955;0.005;0.083;11.220;-36.159;-7.012
1,72753E+12;2024-09-28T16.40.10.015;3.340;-0.957;0.009;0.079;11.098;-31.220;-5.488
1,72753E+12;2024-09-28T16.40.10.025;3.350;-0.978;0.018;0.075;9.451;-31.098;-4.268
1,72753E+12;2024-09-28T16.40.10.035;3.360;-1.021;0.030;0.080;7.256;-34.939;-2.683
1,72753E+12;2024-09-28T16.40.10.045;3.370;-1.045;0.030;0.095;5.305;-43.963;-1.707
1,72753E+12;2024-09-28T16.40.10.055;3.380;-1.073;0.032;0.109;4.695;-59.817;-1.951
1,72753E+12;2024-09-28T16.40.10.065;3.390;-1.125;0.036;0.123;4.817;-85.976;-1.402
1,72753E+12;2024-09-28T16.40.10.075;3.400;-1.175;0.039;0.151;6.341;-124.024;-0.122
1,72753E+12;2024-09-28T16.40.10.085;3.410;-1.207;0.039;0.183;9.695;-175.793;0.366
1,72753E+12;2024-09-28T16.40.10.095;3.420;-1.230;0.044;0.224;13.720;-233.476;-1.646
1,72753E+12;2024-09-28T16.40.10.105;3.430;-1.187;0.042;0.274;18.171;-288.415;-5.671
1,72753E+12;2024-09-28T16.40.10.115;3.440;-1.129;0.022;0.318;23.537;-343.232;-9.817
1,72753E+12;2024-09-28T16.40.10.125;3.450;-1.130;0.016;0.360;29.817;-391.707;-17.378
1,72753E+12;2024-09-28T16.40.10.135;3.460;-1.081;0.028;0.392;31.890;-428.963;-22.744
1,72753E+12;2024-09-28T16.40.10.145;3.470;-1.003;0.030;0.423;33.720;-450.976;-21.280
1,72753E+12;2024-09-28T16.40.10.155;3.480;-0.912;0.006;0.469;36.220;-458.841;-18.293
1,72753E+12;2024-09-28T16.40.10.165;3.490;-0.800;0.002;0.533;38.415;-458.171;-14.939
1,72753E+12;2024-09-28T16.40.10.175;3.500;-0.712;0.001;0.576;40.793;-453.780;-13.598
1,72753E+12;2024-09-28T16.40.10.185;3.510;-0.662;-0.002;0.618;40.854;-452.134;-11.646
1,72753E+12;2024-09-28T16.40.10.195;3.520;-0.658;-0.014;0.660;40.793;-460.000;-7.866
1,72753E+12;2024-09-28T16.40.10.205;3.530;-0.644;0.001;0.678;39.695;-467.744;-7.256
1,72753E+12;2024-09-28T16.40.10.215;3.540;-0.519;0.035;0.694;36.463;-464.268;-7.134
1,72753E+12;2024-09-28T16.40.10.225;3.550;-0.363;0.049;0.719;32.622;-452.622;-5.549
1,72753E+12;2024-09-28T16.40.10.235;3.560;-0.269;0.053;0.759;28.049;-431.524;-3.780
1,72753E+12;2024-09-28T16.40.10.245;3.570;-0.159;0.062;0.790;22.134;-394.085;-4.146
1,72753E+12;2024-09-28T16.40.10.255;3.580;0.009;0.069;0.817;15.976;-336.707;-2.988
1,72753E+12;2024-09-28T16.40.10.265;3.590;0.141;0.063;0.862;10.488;-264.695;0.732
1,72753E+12;2024-09-28T16.40.10.275;3.600;0.208;0.053;0.899;6.585;-194.329;5.000
1,72753E+12;2024-09-28T16.40.10.285;3.610;0.158;0.026;0.923;8.049;-157.866;10.122
1,72753E+12;2024-09-28T16.40.10.295;3.620;-0.076;-0.007;0.919;11.098;-170.305;13.171
1,72753E+12;2024-09-28T16.40.10.305;3.630;-0.240;0.047;0.883;8.476;-204.573;7.012
1,72753E+12;2024-09-28T16.40.10.315;3.640;-0.076;0.093;0.871;5.671;-224.634;-3.537
1,72753E+12;2024-09-28T16.40.10.325;3.650;0.127;0.079;0.906;4.207;-207.439;-8.476
1,72753E+12;2024-09-28T16.40.10.335;3.660;0.271;0.062;0.929;2.866;-162.622;-5.854
1,72753E+12;2024-09-28T16.40.10.345;3.670;0.379;0.071;0.932;2.378;-107.988;-4.146
1,72753E+12;2024-09-28T16.40.10.355;3.680;0.402;0.089;0.930;1.402;-52.622;-4.756
1,72753E+12;2024-09-28T16.40.10.365;3.690;0.384;0.090;0.919;-1.037;-2.378;-4.146
1,72753E+12;2024-09-28T16.40.10.375;3.700;0.361;0.100;0.912;-5.000;39.878;-2.927
1,72753E+12;2024-09-28T16.40.10.385;3.710;0.328;0.088;0.915;-7.073;63.415;-1.159
1,72753E+12;2024-09-28T16.40.10.395;3.720;0.193;0.076;0.920;-6.463;59.695;-0.427
1,72753E+12;2024-09-28T16.40.10.405;3.730;0.035;0.074;0.916;-6.098;34.268;-0.366
1,72753E+12;2024-09-28T16.40.10.415;3.740;-0.001;0.078;0.923;-5.000;2.134;-0.366
1,72753E+12;2024-09-28T16.40.10.425;3.750;0.062;0.092;0.942;-2.927;-17.988;-2.439
1,72753E+12;2024-09-28T16.40.10.435;3.760;0.156;0.089;0.968;-0.305;-18.598;-3.841
1,72753E+12;2024-09-28T16.40.10.445;3.770;0.225;0.078;0.984;2.012;-3.415;-2.561
1,72753E+12;2024-09-28T16.40.10.455;3.780;0.258;0.083;0.975;2.744;18.232;-1.280
1,72753E+12;2024-09-28T16.40.10.465;3.790;0.250;0.091;0.956;1.402;36.890;-0.793
1,72753E+12;2024-09-28T16.40.10.475;3.800;0.206;0.093;0.950;-0.244;44.817;0.183
1,72753E+12;2024-09-28T16.40.10.485;3.810;0.138;0.076;0.952;0.061;34.085;2.012
1,72753E+12;2024-09-28T16.40.10.495;3.820;0.033;0.068;0.961;0.976;8.049;1.829
1,72753E+12;2024-09-28T16.40.10.505;3.830;0.000;0.064;0.969;1.402;-16.585;0.000
1,72753E+12;2024-09-28T16.40.10.515;3.840;0.095;0.060;0.978;2.622;-25.488;-1.829
1,72753E+12;2024-09-28T16.40.10.525;3.850;0.192;0.061;0.999;3.415;-15.732;-3.476
1,72753E+12;2024-09-28T16.40.10.535;3.860;0.225;0.060;1.006;3.415;4.512;-3.171
1,72753E+12;2024-09-28T16.40.10.545;3.870;0.227;0.071;0.997;2.134;24.634;-1.951
1,72753E+12;2024-09-28T16.40.10.555;3.880;0.208;0.087;0.981;-0.549;41.768;-2.744
1,72753E+12;2024-09-28T16.40.10.565;3.890;0.194;0.085;0.972;-3.415;56.159;-3.537
1,72753E+12;2024-09-28T16.40.10.575;3.900;0.159;0.066;0.974;-4.817;59.695;-1.159
1,72753E+12;2024-09-28T16.40.10.585;3.910;0.069;0.059;0.984;-4.756;44.390;0.549
1,72753E+12;2024-09-28T16.40.10.595;3.920;-0.004;0.065;0.992;-4.085;15.671;-2.195
1,72753E+12;2024-09-28T16.40.10.605;3.930;-0.013;0.066;1.002;-3.293;-8.354;-5.915
1,72753E+12;2024-09-28T16.40.10.615;3.940;0.058;0.062;1.020;-2.683;-15.488;-7.500
1,72753E+12;2024-09-28T16.40.10.625;3.950;0.149;0.064;1.030;-2.439;-6.402;-7.317
1,72753E+12;2024-09-28T16.40.10.635;3.960;0.188;0.068;1.029;-3.171;10.305;-7.683
1,72753E+12;2024-09-28T16.40.10.645;3.970;0.177;0.070;1.012;-6.098;28.902;-7.927
1,72753E+12;2024-09-28T16.40.10.655;3.980;0.189;0.085;0.991;-9.085;49.329;-8.902
1,72753E+12;2024-09-28T16.40.10.665;3.990;0.201;0.072;0.985;-10.061;64.451;-7.378
1,72753E+12;2024-09-28T16.40.10.675;4.000;0.115;0.056;0.979;-8.841;59.573;-3.537
1,72753E+12;2024-09-28T16.40.10.685;4.010;-0.032;0.047;0.976;-6.463;25.305;0.488
1,72753E+12;2024-09-28T16.40.10.695;4.020;-0.130;0.063;0.977;-5.000;-22.439;-0.488
1,72753E+12;2024-09-28T16.40.10.705;4.030;-0.059;0.082;0.998;-3.293;-55.854;-5.549
1,72753E+12;2024-09-28T16.40.10.715;4.040;0.070;0.051;1.027;0.244;-64.451;-7.500
1,72753E+12;2024-09-28T16.40.10.725;4.050;0.116;0.032;1.034;2.744;-52.256;-7.439
1,72753E+12;2024-09-28T16.40.10.735;4.060;0.158;0.041;1.004;1.646;-26.707;-7.378
1,72753E+12;2024-09-28T16.40.10.745;4.070;0.212;0.041;0.977;-1.159;4.634;-6.829
1,72753E+12;2024-09-28T16.40.10.755;4.080;0.212;0.050;0.965;-4.573;27.866;-5.427
1,72753E+12;2024-09-28T16.40.10.765;4.090;0.125;0.055;0.953;-6.890;27.744;-3.415
1,72753E+12;2024-09-28T16.40.10.775;4.100;-0.012;0.049;0.959;-7.744;4.085;-2.195
1,72753E+12;2024-09-28T16.40.10.785;4.110;-0.073;0.046;0.984;-5.976;-30.427;-1.646
